EstS,AccX,AccY,AccZ,GyroX,GyroY,GyroZ,Temperature,FrameType
2188.315849613,-0.113,0.061,0.993,0.0,0.0,-0.122,0.0,N/A
2188.332980444,-0.113,0.061,0.993,0.0,0.0,-0.122,0.0,N/A
2188.344503469,-0.113,0.061,0.993,0.0,0.0,-0.122,0.0,N/A
2188.35474026,-0.113,0.061,0.993,0.0,0.0,-0.122,0.0,N/A
2188.36475772,-0.113,0.061,0.993,0.0,0.0,-0.122,0.0,N/A
2188.37586075,-0.113,0.061,0.993,0.0,0.0,-0.122,0.0,N/A
2188.385937126,-0.113,0.061,0.993,0.0,0.0,-0.122,0.0,N/A
2188.396052294,-0.113,0.061,0.993,0.0,0.0,-0.122,0.0,N/A
2188.40626546,-0.113,0.061,0.993,0.0,0.0,-0.122,0.0,N/A
2188.416490001,-0.113,0.061,0.993,0.0,0.0,0.0,0.0,N/A
2188.426870581,-0.113,0.061,0.993,0.0,0.0,-0.122,0.0,N/A
2188.437108247,-0.113,0.061,0.993,0.0,0.0,-0.122,0.0,N/A
2188.44730683,-0.113,0.061,0.993,0.0,0.0,-0.122,0.0,N/A
2188.457479163,-0.113,0.061,0.993,0.0,0.0,0.0,0.0,N/A
2188.46763983,-0.113,0.061,0.993,0.0,0.0,-0.122,0.0,N/A
2188.478017786,-0.113,0.061,0.993,0.0,0.0,-0.122,0.0,N/A
2188.488558781,-0.113,0.061,0.993,0.0,0.0,-0.122,0.0,N/A
2188.498694365,-0.113,0.061,0.993,0.0,0.0,-0.122,0.0,N/A
2188.508904906,-0.113,0.061,0.993,0.0,0.0,-0.122,0.0,N/A
2188.519163572,-0.113,0.061,0.993,0.0,0.0,-0.122,0.0,N/A
2188.534595757,-0.113,0.061,0.993,0.0,0.0,-0.122,0.0,N/A
2188.539653778,-0.113,0.061,0.993,0.0,0.0,-0.122,0.0,N/A
2188.549982443,-0.113,0.061,0.993,0.0,0.0,-0.122,0.0,N/A
2188.559913862,-0.113,0.061,0.993,0.0,0.0,-0.122,0.0,N/A
2188.570231444,-0.113,0.061,0.993,0.0,0.0,-0.122,0.0,N/A
2188.580426819,-0.114,0.061,0.993,0.0,0.0,-0.122,0.0,N/A
2188.590777941,-0.114,0.061,0.993,0.0,0.0,-0.122,0.0,N/A
2188.600794526,-0.114,0.061,0.993,0.0,0.0,-0.122,0.0,N/A
2188.611082067,-0.114,0.061,0.993,0.0,0.0,-0.122,0.0,N/A
2188.621315941,-0.114,0.061,0.993,0.0,0.0,-0.122,0.0,N/A
2188.631530274,-0.114,0.061,0.993,0.0,0.0,-0.122,0.0,N/A
2188.641733523,-0.114,0.061,0.993,0.0,0.0,-0.122,0.0,N/A
2188.652153478,-0.114,0.061,0.993,0.0,0.0,-0.122,0.0,N/A
2188.66218698,-0.114,0.061,0.993,0.0,0.0,-0.122,0.0,N/A
2188.672422896,-0.114,0.061,0.993,0.0,0.0,-0.122,0.0,N/A
2188.682637812,-0.114,0.061,0.993,0.0,0.0,-0.122,0.0,N/A
2188.692815978,-0.114,0.061,0.993,0.0,0.0,-0.122,0.0,N/A
2188.703043728,-0.114,0.061,0.993,0.0,0.0,-0.122,0.0,N/A
2188.719597358,-0.115,0.062,0.993,0.0,0.0,-0.122,0.0,N/A
2188.740552767,-0.115,0.062,0.993,0.0,0.0,-0.122,0.0,N/A
2188.750288189,-0.115,0.062,0.993,0.0,0.0,-0.122,0.0,N/A
2188.760708144,-0.115,0.062,0.993,0.0,0.0,-0.122,0.0,N/A
2188.770879894,-0.115,0.062,0.993,0.0,0.0,-0.122,0.0,N/A
2188.781112018,-0.115,0.062,0.993,0.0,0.0,-0.122,0.0,N/A
2188.791361934,-0.115,0.062,0.993,0.0,0.0,-0.122,0.0,N/A
2188.801554392,-0.115,0.062,0.993,0.0,0.0,-0.122,0.0,N/A
2188.811755599,-0.115,0.062,0.993,0.0,0.0,-0.122,0.0,N/A
2188.821981599,-0.115,0.062,0.993,0.0,0.0,-0.122,0.0,N/A
2188.832179307,-0.115,0.062,0.993,0.0,0.0,-0.122,0.0,N/A
2188.842361848,-0.115,0.062,0.993,0.0,0.0,-0.122,0.0,N/A
2188.852612931,-0.115,0.062,0.993,0.0,0.0,0.0,0.0,N/A
2188.86280218,-0.115,0.062,0.993,0.0,0.0,-0.122,0.0,N/A
2188.873068429,-0.115,0.062,0.993,0.0,0.0,-0.122,0.0,N/A
2188.883300553,-0.115,0.062,0.993,0.0,0.0,-0.122,0.0,N/A
2188.893516928,-0.115,0.062,0.993,0.0,0.0,0.0,0.0,N/A
2188.903747302,-0.115,0.062,0.993,0.0,0.0,-0.122,0.0,N/A
2188.914101925,-0.115,0.062,0.993,0.0,0.0,-0.122,0.0,N/A
2188.924361757,-0.115,0.062,0.993,0.0,0.0,-0.122,0.0,N/A
2188.93451834,-0.115,0.062,0.993,0.0,0.0,0.0,0.0,N/A
2188.944747548,-0.115,0.062,0.993,0.0,0.0,-0.122,0.0,N/A
2188.954950214,-0.115,0.062,0.993,0.0,0.0,-0.122,0.0,N/A
2188.965187005,-0.115,0.062,0.993,0.0,0.0,-0.122,0.0,N/A
2188.975387046,-0.115,0.062,0.993,0.0,0.0,-0.122,0.0,N/A
2188.985622962,-0.115,0.062,0.993,0.0,0.0,-0.122,0.0,N/A
2188.995853628,-0.115,0.062,0.993,0.0,0.0,-0.122,0.0,N/A
2189.006063586,-0.115,0.062,0.993,0.0,0.0,-0.122,0.0,N/A
2189.016467208,-0.115,0.062,0.993,0.0,0.0,-0.122,0.0,N/A
2189.027136827,-0.115,0.062,0.993,0.0,0.0,-0.122,0.0,N/A
2189.037137662,-0.115,0.062,0.993,0.0,0.0,-0.122,0.0,N/A
2189.047422285,-0.115,0.062,0.993,0.0,0.0,-0.122,0.0,N/A
2189.057656451,-0.115,0.062,0.993,0.0,0.0,-0.122,0.0,N/A
2189.067854159,-0.115,0.062,0.993,0.0,0.0,-0.122,0.0,N/A
2189.078067617,-0.115,0.062,0.993,0.0,0.0,-0.122,0.0,N/A
2189.088291866,-0.115,0.062,0.993,0.0,0.0,-0.122,0.0,N/A
2189.098344618,-0.115,0.062,0.993,0.0,0.0,-0.122,0.0,N/A
2189.108570909,-0.115,0.062,0.993,0.0,0.0,-0.122,0.0,N/A
2189.11901128,-0.115,0.062,0.993,0.0,0.0,-0.122,0.0,N/A
2189.129246904,-0.115,0.062,0.993,0.0,0.0,-0.122,0.0,N/A
2189.139397655,-0.115,0.062,0.993,0.0,0.0,-0.122,0.0,N/A
2189.149640279,-0.115,0.062,0.993,0.0,0.0,-0.122,0.0,N/A
2189.159876778,-0.115,0.062,0.993,0.0,0.0,-0.122,0.0,N/A
2189.170057278,-0.115,0.062,0.993,0.0,0.0,-0.122,0.0,N/A
2189.180292902,-0.115,0.062,0.993,0.0,0.0,-0.122,0.0,N/A
2189.190487985,-0.115,0.062,0.993,0.0,0.0,0.0,0.0,N/A
2189.200898024,-0.115,0.062,0.993,0.0,0.0,-0.122,0.0,N/A
2189.211099523,-0.115,0.062,0.993,0.0,0.0,-0.122,0.0,N/A
2189.221337772,-0.114,0.062,0.993,0.0,0.0,-0.122,0.0,N/A
2189.23153373,-0.114,0.062,0.993,0.0,0.0,-0.122,0.0,N/A
2189.241761479,-0.114,0.062,0.993,0.0,0.0,-0.122,0.0,N/A
2189.252151685,-0.114,0.062,0.993,0.0,0.0,-0.122,0.0,N/A
2189.262379726,-0.114,0.062,0.993,0.0,0.0,-0.061,0.0,N/A
2189.272592017,-0.114,0.062,0.993,0.0,0.0,0.0,0.0,N/A
2189.282834058,-0.114,0.062,0.993,0.0,0.0,-0.061,0.0,N/A
2189.293017766,-0.114,0.062,0.993,0.0,0.0,-0.061,0.0,N/A
2189.303237057,-0.114,0.062,0.993,0.0,0.0,-0.061,0.0,N/A
2189.313763469,-0.114,0.062,0.993,0.0,0.0,0.0,0.0,N/A
2189.323852679,-0.114,0.062,0.993,0.0,0.0,-0.122,0.0,N/A
2189.333896097,-0.114,0.062,0.993,0.0,0.0,-0.122,0.0,N/A
2189.344310802,-0.113,0.062,0.993,0.0,0.0,-0.122,0.0,N/A
2189.354720257,-0.113,0.062,0.993,0.0,0.0,-0.122,0.0,N/A
2189.364907465,-0.113,0.062,0.993,0.0,0.0,-0.122,0.0,N/A
2189.374951175,-0.113,0.062,0.993,0.0,0.0,-0.122,0.0,N/A
2189.385647044,-0.113,0.062,0.993,0.0,0.0,-0.122,0.0,N/A
2189.396460744,-0.113,0.062,0.993,0.0,0.0,-0.122,0.0,N/A
2189.406060251,-0.113,0.062,0.993,0.0,0.0,-0.122,0.0,N/A
2189.416348666,-0.114,0.062,0.993,0.0,0.0,-0.122,0.0,N/A
2189.426370502,-0.113,0.062,0.993,0.0,0.0,-0.122,0.0,N/A
2189.436586876,-0.114,0.062,0.993,0.0,0.0,-0.122,0.0,N/A
2189.446802375,-0.113,0.062,0.993,0.0,0.0,-0.122,0.0,N/A
2189.457203664,-0.113,0.062,0.993,0.0,0.0,-0.122,0.0,N/A
2189.467417414,-0.113,0.062,0.993,0.0,0.0,-0.122,0.0,N/A
2189.477630871,-0.113,0.061,0.993,0.0,0.0,0.0,0.0,N/A
2189.487860371,-0.113,0.061,0.993,0.0,0.0,-0.122,0.0,N/A
2189.498107661,-0.113,0.061,0.993,0.0,0.0,-0.122,0.0,N/A
2189.508283203,-0.113,0.061,0.993,0.0,0.0,-0.122,0.0,N/A
2189.518528452,-0.113,0.061,0.993,0.0,0.0,0.0,0.0,N/A
2189.528724701,-0.113,0.061,0.993,0.0,0.0,-0.122,0.0,N/A
2189.538943409,-0.113,0.061,0.993,0.0,0.0,-0.122,0.0,N/A
2189.54921695,-0.113,0.061,0.993,0.0,0.0,-0.122,0.0,N/A
2189.559569531,-0.113,0.061,0.993,0.0,0.0,-0.122,0.0,N/A
2189.569602449,-0.113,0.061,0.993,0.0,0.0,-0.122,0.0,N/A
2189.579995279,-0.113,0.061,0.993,0.0,0.0,-0.122,0.0,N/A
2189.590203196,-0.113,0.061,0.993,0.0,0.0,-0.122,0.0,N/A
2189.600401487,-0.113,0.061,0.993,0.0,0.0,-0.122,0.0,N/A
2189.610645569,-0.113,0.061,0.993,0.0,0.0,0.0,0.0,N/A
2189.62086311,-0.113,0.061,0.993,0.0,0.0,-0.122,0.0,N/A
2189.638242147,-0.113,0.061,0.993,0.0,0.0,-0.122,0.0,N/A
2189.6502085,-0.113,0.061,0.993,0.0,0.0,-0.122,0.0,N/A
2189.660561956,-0.113,0.061,0.993,0.0,0.0,0.0,0.0,N/A
2189.67078533,-0.113,0.061,0.993,0.0,0.0,-0.122,0.0,N/A
2189.68094833,-0.113,0.061,0.993,0.0,0.0,-0.122,0.0,N/A
2189.69140591,-0.113,0.061,0.993,0.0,0.0,-0.122,0.0,N/A
2189.701594868,-0.113,0.061,0.993,0.0,0.0,0.0,0.0,N/A
2189.712405943,-0.113,0.061,0.993,0.0,0.0,-0.122,0.0,N/A
2189.72490254,-0.113,0.061,0.993,0.0,0.0,-0.122,0.0,N/A
2189.734367007,-0.113,0.061,0.993,0.0,0.0,-0.122,0.0,N/A
2189.744693921,-0.113,0.061,0.993,0.0,0.0,-0.122,0.0,N/A
2189.754918754,-0.113,0.061,0.993,0.0,0.0,-0.122,0.0,N/A
2189.765047921,-0.113,0.061,0.993,0.0,0.0,-0.122,0.0,N/A
2189.775387669,-0.113,0.061,0.993,0.0,0.0,-0.122,0.0,N/A
2189.78557371,-0.113,0.061,0.993,0.0,0.0,-0.122,0.0,N/A
2189.795977332,-0.113,0.061,0.993,0.0,0.0,-0.122,0.0,N/A
2189.806150541,-0.113,0.061,0.993,0.0,0.0,-0.122,0.0,N/A
2189.816387331,-0.113,0.061,0.993,0.0,0.0,-0.122,0.0,N/A
2189.826552082,-0.113,0.061,0.993,0.0,0.0,-0.122,0.0,N/A
2189.836829413,-0.113,0.061,0.993,0.0,0.0,-0.122,0.0,N/A
2189.847227202,-0.113,0.061,0.993,0.0,0.0,-0.122,0.0,N/A
2189.862527264,-0.114,0.062,0.993,0.0,0.0,-0.122,0.0,N/A
2189.873178217,-0.114,0.062,0.993,0.0,0.0,-0.122,0.0,N/A
2189.882646767,-0.114,0.062,0.993,0.0,0.0,-0.122,0.0,N/A
2189.892832892,-0.114,0.062,0.993,0.0,0.0,-0.122,0.0,N/A
2189.903241597,-0.114,0.062,0.993,0.0,0.0,-0.122,0.0,N/A
2189.913465263,-0.114,0.062,0.993,0.0,0.0,-0.122,0.0,N/A
2189.923646929,-0.114,0.062,0.993,0.0,0.0,-0.122,0.0,N/A
2189.933862721,-0.114,0.062,0.993,0.0,0.0,-0.122,0.0,N/A
2189.944585714,-0.114,0.062,0.993,0.0,0.0,-0.122,0.0,N/A
2189.95433951,-0.114,0.062,0.993,0.0,0.0,-0.122,0.0,N/A
2189.964557051,-0.114,0.062,0.993,0.0,0.0,-0.122,0.0,N/A
2189.974961257,-0.114,0.062,0.993,0.0,0.0,-0.122,0.0,N/A
2189.985220214,-0.114,0.062,0.993,0.0,0.0,-0.122,0.0,N/A
2189.995398964,-0.114,0.062,0.993,0.0,0.0,-0.122,0.0,N/A
2190.005793253,-0.114,0.062,0.993,0.0,0.0,-0.122,0.0,N/A
2190.015980169,-0.114,0.062,0.993,0.0,0.0,-0.122,0.0,N/A
2190.026164169,-0.114,0.062,0.993,0.0,0.0,-0.122,0.0,N/A
2190.036414085,-0.114,0.062,0.993,0.0,0.0,-0.122,0.0,N/A
2190.046641251,-0.114,0.062,0.993,0.0,0.0,-0.122,0.0,N/A
2190.058081152,-0.114,0.062,0.993,0.0,0.0,-0.122,0.0,N/A
2190.080095006,-0.114,0.062,0.993,0.0,0.0,-0.122,0.0,N/A
2190.090568919,-0.114,0.062,0.993,0.0,0.0,-0.122,0.0,N/A
2190.100930542,-0.114,0.062,0.993,0.0,0.0,-0.122,0.0,N/A
2190.111180166,-0.115,0.062,0.993,0.0,0.0,-0.122,0.0,N/A
2190.121408498,-0.115,0.062,0.993,0.0,0.0,-0.122,0.0,N/A
2190.131593081,-0.115,0.062,0.993,0.0,0.0,-0.122,0.0,N/A
2190.141810622,-0.115,0.062,0.993,0.0,0.0,-0.122,0.0,N/A
2190.15203808,-0.115,0.062,0.993,0.0,0.0,-0.122,0.0,N/A
2190.162248329,-0.115,0.062,0.993,0.0,0.0,-0.122,0.0,N/A
2190.172448662,-0.115,0.062,0.993,0.0,0.0,0.0,0.0,N/A
2190.182763035,-0.115,0.062,0.993,0.0,0.0,-0.122,0.0,N/A
2190.193024618,-0.115,0.062,0.993,0.0,0.0,-0.122,0.0,N/A
2190.203190826,-0.115,0.062,0.993,0.0,0.0,-0.122,0.0,N/A
2190.213361118,-0.115,0.062,0.993,0.0,0.0,-0.122,0.0,N/A
2190.223576617,-0.115,0.062,0.993,0.0,0.0,-0.122,0.0,N/A
2190.233978781,-0.115,0.062,0.993,0.0,0.0,-0.122,0.0,N/A
2190.244540193,-0.115,0.062,0.993,0.0,0.0,-0.122,0.0,N/A
2190.254434571,-0.115,0.062,0.993,0.0,0.0,-0.122,0.0,N/A
2190.264662195,-0.115,0.062,0.993,0.0,0.0,-0.122,0.0,N/A
2190.274996027,-0.115,0.062,0.993,0.0,0.0,-0.122,0.0,N/A
2190.285215318,-0.115,0.062,0.993,0.0,0.0,-0.122,0.0,N/A
2190.295425567,-0.115,0.062,0.993,0.0,0.0,-0.122,0.0,N/A
2190.305678108,-0.115,0.062,0.993,0.0,0.0,-0.061,0.0,N/A
2190.315872899,-0.115,0.062,0.993,0.0,0.0,-0.061,0.0,N/A
2190.326082857,-0.115,0.062,0.993,0.0,0.0,-0.061,0.0,N/A
2190.336337439,-0.115,0.062,0.993,0.0,0.0,-0.122,0.0,N/A
2190.346529897,-0.115,0.062,0.993,0.0,0.0,-0.122,0.0,N/A
2190.356923894,-0.115,0.062,0.993,0.0,0.0,-0.122,0.0,N/A
2190.367168852,-0.115,0.062,0.992,0.0,0.0,-0.122,0.0,N/A
2190.377344685,-0.115,0.062,0.992,0.0,0.0,-0.122,0.0,N/A
2190.387555809,-0.115,0.062,0.992,0.0,0.0,-0.122,0.0,N/A
2190.397794058,-0.115,0.062,0.992,0.0,0.0,-0.061,0.0,N/A
2190.408175514,-0.115,0.062,0.992,0.0,0.0,-0.061,0.0,N/A
2190.418377889,-0.115,0.062,0.992,0.0,0.0,-0.061,0.0,N/A
2190.428596305,-0.115,0.062,0.992,0.0,0.0,-0.122,0.0,N/A
2190.438849429,-0.115,0.062,0.992,0.0,0.0,-0.122,0.0,N/A
2190.449034887,-0.115,0.062,0.992,0.0,0.0,-0.122,0.0,N/A
2190.459241636,-0.115,0.062,0.992,0.0,0.0,-0.122,0.0,N/A
2190.469461219,-0.115,0.062,0.992,0.0,0.0,-0.122,0.0,N/A
2190.479812633,-0.115,0.062,0.992,0.0,0.0,-0.061,0.0,N/A
2190.490032799,-0.115,0.062,0.992,0.0,0.0,-0.122,0.0,N/A
2190.500300507,-0.115,0.062,0.992,0.0,0.0,-0.122,0.0,N/A
2190.510466715,-0.115,0.062,0.992,0.0,0.0,-0.122,0.0,N/A
2190.520704089,-0.115,0.062,0.992,0.0,0.0,-0.122,0.0,N/A
2190.530910839,-0.115,0.062,0.992,0.0,0.0,-0.061,0.0,N/A
2190.541286169,-0.115,0.062,0.992,0.0,0.0,-0.061,0.0,N/A
2190.551520335,-0.115,0.062,0.992,0.0,0.0,-0.061,0.0,N/A
2190.570582851,-0.115,0.062,0.992,0.0,0.0,-0.061,0.0,N/A
2190.582418247,-0.115,0.062,0.992,0.0,0.0,-0.061,0.0,N/A
2190.592615955,-0.115,0.062,0.992,0.0,0.0,-0.061,0.0,N/A
2190.602831746,-0.115,0.062,0.992,0.0,0.0,-0.061,0.0,N/A
2190.613072037,-0.114,0.062,0.992,0.0,0.0,-0.061,0.0,N/A
2190.623292494,-0.114,0.062,0.992,0.0,0.0,-0.061,0.0,N/A
2190.633524035,-0.114,0.062,0.992,0.0,0.0,-0.061,0.0,N/A
2190.644004073,-0.114,0.062,0.992,0.0,0.0,-0.061,0.0,N/A
2190.654608943,-0.114,0.062,0.992,0.0,0.0,-0.061,0.0,N/A
2190.664521113,-0.114,0.062,0.992,0.0,0.0,-0.122,0.0,N/A
2190.674667779,-0.114,0.062,0.992,0.0,0.0,-0.061,0.0,N/A
2190.68493082,-0.114,0.062,0.992,0.0,0.0,-0.122,0.0,N/A
2190.695199402,-0.114,0.062,0.992,0.0,0.0,-0.122,0.0,N/A
2190.705354819,-0.114,0.062,0.992,0.0,0.0,-0.122,0.0,N/A
2190.715585776,-0.114,0.062,0.992,0.0,0.0,-0.122,0.0,N/A
2190.725801859,-0.114,0.062,0.992,0.0,0.0,-0.122,0.0,N/A
2190.736015025,-0.114,0.062,0.992,0.0,0.0,-0.122,0.0,N/A
2190.746232275,-0.113,0.062,0.993,0.0,0.0,-0.122,0.0,N/A
2190.756458566,-0.113,0.062,0.993,0.0,0.0,-0.122,0.0,N/A
2190.766668815,-0.113,0.062,0.993,0.0,0.0,-0.122,0.0,N/A
2190.777140686,-0.113,0.062,0.993,0.0,0.0,-0.122,0.0,N/A
2190.787564433,-0.113,0.062,0.993,0.0,0.0,-0.122,0.0,N/A
2190.798038054,-0.113,0.062,0.993,0.0,0.0,-0.122,0.0,N/A
2190.808417468,-0.113,0.062,0.993,0.0,0.0,-0.122,0.0,N/A
2190.818786383,-0.113,0.062,0.993,0.0,0.0,-0.122,0.0,N/A
2190.829165213,-0.113,0.062,0.993,0.0,0.0,-0.122,0.0,N/A
2190.83947142,-0.113,0.062,0.993,0.0,0.0,-0.122,0.0,N/A
2190.849488005,-0.113,0.062,0.993,0.0,0.0,-0.122,0.0,N/A
2190.859737921,-0.113,0.062,0.993,0.0,0.0,-0.122,0.0,N/A
2190.869707548,-0.113,0.062,0.993,0.0,0.0,-0.122,0.0,N/A
2190.879965047,-0.113,0.062,0.993,0.0,0.0,-0.122,0.0,N/A
2190.890201838,-0.113,0.062,0.993,0.0,0.0,-0.122,0.0,N/A
2190.90057746,-0.113,0.062,0.993,0.0,0.0,0.0,0.0,N/A
2190.910911667,-0.113,0.062,0.993,0.0,0.0,-0.122,0.0,N/A
2190.92121379,-0.113,0.062,0.993,0.0,0.0,-0.122,0.0,N/A
2190.931613037,-0.113,0.062,0.993,0.0,0.0,-0.122,0.0,N/A
2190.941946077,-0.113,0.062,0.993,0.0,0.0,-0.122,0.0,N/A
2190.952328991,-0.113,0.062,0.993,0.0,0.0,-0.122,0.0,N/A
2190.962757113,-0.113,0.062,0.993,0.0,0.0,-0.122,0.0,N/A
2190.973284983,-0.113,0.062,0.993,0.0,0.0,-0.122,0.0,N/A
2190.983692397,-0.113,0.062,0.993,0.0,0.0,-0.122,0.0,N/A
2190.994066853,-0.113,0.062,0.993,0.0,0.0,-0.122,0.0,N/A
2191.0044451,-0.113,0.062,0.993,0.0,0.0,-0.122,0.0,N/A
2191.014851639,-0.113,0.062,0.993,0.0,0.0,-0.122,0.0,N/A
2191.025394676,-0.113,0.062,0.993,0.0,0.0,-0.122,0.0,N/A
2191.035771465,-0.113,0.062,0.993,0.0,0.0,-0.122,0.0,N/A
2191.046180629,-0.113,0.062,0.993,0.0,0.0,-0.122,0.0,N/A
2191.056577834,-0.113,0.062,0.993,0.0,0.0,0.0,0.0,N/A
2191.067055539,-0.113,0.062,0.993,0.0,0.0,-0.122,0.0,N/A
2191.080601247,-0.113,0.062,0.993,0.0,0.0,-0.122,0.0,N/A
2191.08742508,-0.113,0.062,0.993,0.0,0.0,-0.122,0.0,N/A
2191.097412707,-0.113,0.062,0.993,0.0,0.0,-0.122,0.0,N/A
2191.107654748,-0.113,0.062,0.993,0.0,0.0,-0.122,0.0,N/A
2191.117828831,-0.113,0.062,0.993,0.0,0.0,-0.122,0.0,N/A
2191.128058039,-0.113,0.062,0.993,0.0,0.0,-0.122,0.0,N/A
2191.138281705,-0.113,0.062,0.993,0.0,0.0,-0.122,0.0,N/A
2191.148687952,-0.113,0.062,0.993,0.0,0.0,0.0,0.0,N/A
2191.158854452,-0.113,0.062,0.993,0.0,0.0,-0.122,0.0,N/A
2191.169097951,-0.113,0.062,0.993,0.0,0.0,-0.122,0.0,N/A
2191.179249576,-0.113,0.062,0.993,0.0,0.0,-0.122,0.0,N/A
2191.189513783,-0.113,0.062,0.993,0.0,0.0,0.0,0.0,N/A
2191.199750282,-0.113,0.062,0.993,0.0,0.0,-0.122,0.0,N/A
2191.209953532,-0.113,0.062,0.993,0.0,0.0,-0.122,0.0,N/A
2191.220356862,-0.113,0.062,0.993,0.0,0.0,-0.122,0.0,N/A
2191.23055982,-0.113,0.062,0.993,0.0,0.0,0.0,0.0,N/A
2191.240773861,-0.113,0.062,0.993,0.0,0.0,-0.122,0.0,N/A
2191.251109817,-0.114,0.062,0.993,0.0,0.0,-0.122,0.0,N/A
2191.261242485,-0.114,0.062,0.993,0.0,0.0,-0.122,0.0,N/A
2191.271405485,-0.114,0.062,0.993,0.0,0.0,-0.122,0.0,N/A
2191.281654525,-0.114,0.062,0.993,0.0,0.0,-0.122,0.0,N/A
2191.291926024,-0.114,0.062,0.993,0.0,0.0,-0.122,0.0,N/A
2191.302212398,-0.114,0.062,0.993,0.0,0.0,-0.122,0.0,N/A
2191.312354689,-0.114,0.062,0.993,0.0,0.0,-0.122,0.0,N/A
2191.322591189,-0.114,0.062,0.993,0.0,0.0,0.0,0.0,N/A
2191.332790355,-0.114,0.062,0.993,0.0,0.0,-0.122,0.0,N/A
2191.343035604,-0.114,0.062,0.993,0.0,0.0,-0.122,0.0,N/A
2191.353058022,-0.114,0.062,0.993,0.0,0.0,-0.122,0.0,N/A
2191.363291605,-0.114,0.062,0.993,0.0,0.0,-0.122,0.0,N/A
2191.37368706,-0.114,0.062,0.993,0.0,0.0,-0.122,0.0,N/A
2191.383889727,-0.114,0.062,0.993,0.0,0.0,-0.122,0.0,N/A
2191.402613621,-0.114,0.062,0.993,0.0,0.0,-0.122,0.0,N/A
2191.413916733,-0.114,0.062,0.993,0.0,0.0,-0.122,0.0,N/A
2191.424103066,-0.114,0.062,0.993,0.0,0.0,-0.122,0.0,N/A
2191.434506979,-0.114,0.062,0.993,0.0,0.0,-0.122,0.0,N/A
2191.444694771,-0.114,0.062,0.993,0.0,0.0,-0.122,0.0,N/A
2191.454966561,-0.114,0.062,0.993,0.0,0.0,-0.122,0.0,N/A
2191.465454766,-0.114,0.062,0.993,0.0,0.0,-0.122,0.0,N/A
2191.477424035,-0.114,0.062,0.993,0.0,0.0,-0.122,0.0,N/A
2191.487541577,-0.114,0.062,0.993,0.0,0.0,-0.122,0.0,N/A
2191.498148489,-0.114,0.062,0.993,0.0,0.0,-0.122,0.0,N/A
2191.508515653,-0.115,0.062,0.993,0.0,0.0,0.0,0.0,N/A
2191.518906442,-0.115,0.062,0.993,0.0,0.0,-0.122,0.0,N/A
2191.529317355,-0.115,0.062,0.993,0.0,0.0,-0.122,0.0,N/A
2191.539867684,-0.115,0.062,0.993,0.0,0.0,-0.122,0.0,N/A
2191.550313014,-0.115,0.062,0.993,0.0,0.0,-0.122,0.0,N/A
2191.560683678,-0.115,0.062,0.993,0.0,0.0,-0.122,0.0,N/A
2191.571024593,-0.115,0.062,0.993,0.0,0.0,-0.122,0.0,N/A
2191.581453298,-0.115,0.062,0.993,0.0,0.0,-0.122,0.0,N/A
2191.591851087,-0.115,0.062,0.993,0.0,0.0,-0.122,0.0,N/A
2191.602093419,-0.115,0.062,0.993,0.0,0.0,-0.122,0.0,N/A
2191.61230571,-0.115,0.062,0.993,0.0,0.0,-0.122,0.0,N/A
2191.622682791,-0.115,0.062,0.993,0.0,0.0,-0.122,0.0,N/A
2191.633086413,-0.115,0.062,0.993,0.0,0.0,-0.122,0.0,N/A
2191.643445702,-0.115,0.062,0.993,0.0,0.0,-0.122,0.0,N/A
2191.653828616,-0.115,0.062,0.993,0.0,0.0,-0.122,0.0,N/A
2191.664397903,-0.115,0.062,0.993,0.0,0.0,-0.122,0.0,N/A
2191.6747989,-0.115,0.062,0.993,0.0,0.0,-0.122,0.0,N/A
2191.685225855,-0.115,0.062,0.993,0.0,0.0,-0.122,0.0,N/A
2191.695563853,-0.115,0.062,0.993,0.0,0.0,0.0,0.0,N/A
2191.705977975,-0.115,0.062,0.993,0.0,0.0,-0.122,0.0,N/A
2191.716346306,-0.115,0.062,0.993,0.0,0.0,-0.122,0.0,N/A
2191.726729803,-0.115,0.062,0.993,0.0,0.0,-0.122,0.0,N/A
2191.737116509,-0.115,0.062,0.993,0.0,0.0,-0.122,0.0,N/A
2191.74750934,-0.115,0.062,0.993,0.0,0.0,0.0,0.0,N/A
2191.757896337,-0.115,0.062,0.993,0.0,0.0,-0.122,0.0,N/A
2191.768403208,-0.115,0.062,0.993,0.0,0.0,-0.122,0.0,N/A
2191.778831329,-0.115,0.062,0.993,0.0,0.0,-0.122,0.0,N/A
2191.789246326,-0.115,0.062,0.993,0.0,0.0,-0.122,0.0,N/A
2191.799617574,-0.115,0.062,0.993,0.0,0.0,0.0,0.0,N/A
2191.809830157,-0.115,0.062,0.993,0.0,0.0,-0.122,0.0,N/A
2191.820056156,-0.115,0.062,0.993,0.0,0.0,-0.122,0.0,N/A
2191.830433528,-0.115,0.062,0.993,0.0,0.0,-0.122,0.0,N/A
2191.840823151,-0.115,0.062,0.993,0.0,0.0,-0.122,0.0,N/A
2191.851446103,-0.115,0.062,0.993,0.0,0.0,-0.122,0.0,N/A
2191.861777393,-0.115,0.062,0.993,0.0,0.0,-0.122,0.0,N/A
2191.87217664,-0.115,0.062,0.993,0.0,0.0,-0.122,0.0,N/A
2191.882552554,-0.115,0.062,0.993,0.0,0.0,-0.122,0.0,N/A
2191.893116883,-0.115,0.062,0.993,0.0,0.0,-0.122,0.0,N/A
2191.903493672,-0.115,0.062,0.993,0.0,0.0,-0.061,0.0,N/A
2191.913861711,-0.115,0.062,0.993,0.0,0.0,-0.061,0.0,N/A
2191.929229147,-0.115,0.062,0.993,0.0,0.0,-0.122,0.0,N/A
2191.939146358,-0.115,0.062,0.993,0.0,0.0,-0.122,0.0,N/A
2191.949404441,-0.115,0.062,0.993,0.0,0.0,-0.122,0.0,N/A
2191.965766323,-0.115,0.062,0.993,0.0,0.0,-0.061,0.0,N/A
2191.975838324,-0.115,0.062,0.993,0.0,0.0,-0.061,0.0,N/A
2191.986073657,-0.115,0.062,0.993,0.0,0.0,-0.061,0.0,N/A
2191.996987397,-0.115,0.062,0.993,0.0,0.0,-0.061,0.0,N/A
2192.007375561,-0.115,0.062,0.993,0.0,0.0,-0.061,0.0,N/A
2192.017584061,-0.114,0.061,0.993,0.0,0.0,0.0,0.0,N/A
2192.027815018,-0.114,0.061,0.993,0.0,0.0,-0.061,0.0,N/A
2192.038020601,-0.114,0.061,0.993,0.0,0.0,-0.122,0.0,N/A
2192.048226476,-0.114,0.061,0.993,0.0,0.0,-0.122,0.0,N/A
2192.0584621,-0.114,0.061,0.993,0.0,0.0,-0.122,0.0,N/A
2192.068635891,-0.114,0.061,0.993,0.0,0.0,-0.122,0.0,N/A
2192.079067222,-0.114,0.061,0.993,0.0,0.0,-0.061,0.0,N/A
2192.089292346,-0.114,0.061,0.993,0.0,0.0,-0.061,0.0,N/A
2192.099513095,-0.114,0.061,0.993,0.0,0.0,-0.061,0.0,N/A
2192.10971547,-0.114,0.061,0.993,0.0,0.0,-0.122,0.0,N/A
2192.119923969,-0.114,0.061,0.993,0.0,0.0,-0.122,0.0,N/A
2192.130168927,-0.114,0.061,0.993,0.0,0.0,-0.061,0.0,N/A
2192.140354385,-0.114,0.061,0.993,0.0,0.0,-0.061,0.0,N/A
2192.150585051,-0.114,0.061,0.993,0.0,0.0,-0.061,0.0,N/A
2192.16095834,-0.114,0.061,0.993,0.0,0.0,-0.061,0.0,N/A
2192.171213214,-0.114,0.061,0.993,0.0,0.0,-0.061,0.0,N/A
2192.181463713,-0.114,0.061,0.993,0.0,0.0,-0.061,0.0,N/A
2192.191608338,-0.114,0.061,0.993,0.0,0.0,0.0,0.0,N/A
2192.201829962,-0.114,0.061,0.993,0.0,0.0,-0.061,0.0,N/A
2192.212054503,-0.114,0.061,0.993,0.0,0.0,-0.061,0.0,N/A
2192.222287211,-0.114,0.061,0.993,0.0,0.0,-0.061,0.0,N/A
2192.23248521,-0.114,0.061,0.993,0.0,0.0,-0.061,0.0,N/A
2192.242720543,-0.114,0.061,0.993,0.0,0.0,-0.122,0.0,N/A
2192.25309354,-0.114,0.061,0.993,0.0,0.0,-0.122,0.0,N/A
2192.263551703,-0.113,0.061,0.993,0.0,0.0,-0.122,0.0,N/A
2192.273761078,-0.113,0.061,0.993,0.0,0.0,-0.122,0.0,N/A
2192.284264449,-0.113,0.061,0.993,0.0,0.0,-0.122,0.0,N/A
2192.294601863,-0.113,0.061,0.993,0.0,0.0,-0.061,0.0,N/A
2192.304272536,-0.113,0.061,0.993,0.0,0.0,-0.061,0.0,N/A
2192.314573201,-0.113,0.061,0.993,0.0,0.0,-0.122,0.0,N/A
2192.324816409,-0.113,0.061,0.993,0.0,0.0,-0.122,0.0,N/A
2192.335024033,-0.113,0.061,0.993,0.0,0.0,-0.122,0.0,N/A
2192.345246532,-0.113,0.061,0.993,0.0,0.0,-0.122,0.0,N/A
2192.355643155,-0.113,0.061,0.993,0.0,0.0,-0.122,0.0,N/A
2192.365851071,-0.113,0.061,0.993,0.0,0.0,-0.122,0.0,N/A
2192.375910239,-0.113,0.061,0.993,0.0,0.0,-0.122,0.0,N/A
2192.386128655,-0.113,0.061,0.993,0.0,0.0,-0.122,0.0,N/A
2192.396172365,-0.113,0.062,0.993,0.0,0.0,-0.122,0.0,N/A
2192.406216949,-0.113,0.062,0.993,0.0,0.0,-0.122,0.0,N/A
2192.416274659,-0.113,0.062,0.993,0.0,0.0,-0.122,0.0,N/A
2192.426476742,-0.113,0.062,0.993,0.0,0.0,0.0,0.0,N/A
2192.43653766,-0.113,0.062,0.993,0.0,0.0,-0.122,0.0,N/A
2192.44656912,-0.113,0.062,0.993,0.0,0.0,-0.122,0.0,N/A
2192.456633246,-0.113,0.062,0.993,0.0,0.0,-0.122,0.0,N/A
2192.466839996,-0.113,0.062,0.993,0.0,0.0,-0.122,0.0,N/A
2192.47691433,-0.113,0.062,0.993,0.0,0.0,-0.122,0.0,N/A
2192.486946957,-0.113,0.062,0.993,0.0,0.0,-0.122,0.0,N/A
2192.4970315,-0.113,0.062,0.993,0.0,0.0,-0.122,0.0,N/A
2192.507005502,-0.113,0.062,0.993,0.0,0.0,-0.122,0.0,N/A
2192.517236168,-0.113,0.062,0.993,0.0,0.0,-0.122,0.0,N/A
2192.527269086,-0.113,0.062,0.993,0.0,0.0,-0.122,0.0,N/A
2192.537306379,-0.113,0.062,0.993,0.0,0.0,-0.122,0.0,N/A
2192.54753092,-0.113,0.062,0.993,0.0,0.0,-0.122,0.0,N/A
2192.557576964,-0.113,0.062,0.993,0.0,0.0,-0.122,0.0,N/A
2192.56762534,-0.113,0.062,0.993,0.0,0.0,-0.122,0.0,N/A
2192.57767605,-0.113,0.062,0.993,0.0,0.0,-0.122,0.0,N/A
2192.587889508,-0.113,0.062,0.993,0.0,0.0,-0.122,0.0,N/A
2192.597988633,-0.113,0.062,0.993,0.0,0.0,-0.122,0.0,N/A
2192.607997635,-0.113,0.062,0.993,0.0,0.0,-0.122,0.0,N/A
2192.618083928,-0.113,0.062,0.993,0.0,0.0,-0.122,0.0,N/A
2192.628104305,-0.113,0.062,0.993,0.0,0.0,-0.122,0.0,N/A
2192.638312804,-0.113,0.062,0.993,0.0,0.0,-0.122,0.0,N/A
2192.648372847,-0.113,0.062,0.993,0.0,0.0,-0.122,0.0,N/A
2192.658405182,-0.113,0.062,0.993,0.0,0.0,0.0,0.0,N/A
2192.66847135,-0.113,0.062,0.993,0.0,0.0,-0.122,0.0,N/A
2192.678515352,-0.113,0.062,0.993,0.0,0.0,-0.122,0.0,N/A
2192.688743101,-0.113,0.062,0.993,0.0,0.0,-0.122,0.0,N/A
2192.698772519,-0.113,0.062,0.993,0.0,0.0,-0.122,0.0,N/A
2192.708827021,-0.113,0.062,0.993,0.0,0.0,-0.122,0.0,N/A
2192.718866356,-0.113,0.062,0.993,0.0,0.0,-0.122,0.0,N/A
2192.729099355,-0.113,0.062,0.993,0.0,0.0,-0.122,0.0,N/A
2192.73913694,-0.113,0.062,0.993,0.0,0.0,-0.122,0.0,N/A
2192.749180066,-0.113,0.062,0.993,0.0,0.0,-0.122,0.0,N/A
2192.759247109,-0.113,0.062,0.993,0.0,0.0,-0.122,0.0,N/A
2192.769297527,-0.113,0.062,0.993,0.0,0.0,-0.122,0.0,N/A
2192.779504568,-0.114,0.062,0.993,0.0,0.0,-0.122,0.0,N/A
2192.789552362,-0.114,0.062,0.993,0.0,0.0,-0.122,0.0,N/A
2192.799616488,-0.114,0.062,0.993,0.0,0.0,-0.122,0.0,N/A
2192.809821487,-0.114,0.062,0.993,0.0,0.0,-0.122,0.0,N/A
2192.81987278,-0.114,0.062,0.993,0.0,0.0,-0.122,0.0,N/A
2192.829913282,-0.114,0.062,0.993,0.0,0.0,-0.122,0.0,N/A
2192.839981492,-0.114,0.062,0.993,0.0,0.0,-0.122,0.0,N/A
2192.850178616,-0.114,0.062,0.993,0.0,0.0,-0.122,0.0,N/A
2192.860239826,-0.114,0.062,0.993,0.0,0.0,-0.122,0.0,N/A
2192.870278577,-0.114,0.062,0.993,0.0,0.0,-0.122,0.0,N/A
2192.880319954,-0.114,0.062,0.993,0.0,0.0,0.0,0.0,N/A
2192.89054362,-0.114,0.062,0.993,0.0,0.0,-0.122,0.0,N/A
2192.90059958,-0.114,0.062,0.993,0.0,0.0,-0.122,0.0,N/A
2192.910640373,-0.114,0.062,0.993,0.0,0.0,-0.122,0.0,N/A
2192.920717624,-0.114,0.062,0.993,0.0,0.0,-0.122,0.0,N/A
2192.93090804,-0.114,0.062,0.993,0.0,0.0,-0.122,0.0,N/A
2192.940983541,-0.114,0.062,0.993,0.0,0.0,-0.122,0.0,N/A
2192.95100771,-0.114,0.062,0.993,0.0,0.0,-0.122,0.0,N/A
2192.961050545,-0.114,0.062,0.993,0.0,0.0,-0.122,0.0,N/A
2192.971065963,-0.114,0.062,0.993,0.0,0.0,-0.122,0.0,N/A
2192.98134417,-0.114,0.062,0.993,0.0,0.0,-0.122,0.0,N/A
2192.991403047,-0.114,0.062,0.993,0.0,0.0,-0.122,0.0,N/A
2193.00145609,-0.114,0.062,0.993,0.0,0.0,0.0,0.0,N/A
2193.011458092,-0.114,0.062,0.993,0.0,0.0,-0.122,0.0,N/A
2193.021715591,-0.114,0.062,0.993,0.0,0.0,-0.122,0.0,N/A
2193.031767467,-0.115,0.062,0.993,0.0,0.0,-0.122,0.0,N/A
2193.041806219,-0.115,0.062,0.993,0.0,0.0,-0.122,0.0,N/A
2193.052034551,-0.115,0.062,0.993,0.0,0.0,-0.122,0.0,N/A
2193.062353008,-0.115,0.062,0.993,0.0,0.0,-0.122,0.0,N/A
2193.072240094,-0.115,0.062,0.993,0.0,0.0,-0.122,0.0,N/A
2193.082305096,-0.115,0.062,0.993,0.0,0.0,-0.122,0.0,N/A
2193.092494345,-0.115,0.062,0.993,0.0,0.0,-0.122,0.0,N/A
2193.102532222,-0.115,0.062,0.993,0.0,0.0,-0.122,0.0,N/A
2193.112576515,-0.115,0.062,0.993,0.0,0.0,-0.122,0.0,N/A
2193.122626642,-0.115,0.062,0.993,0.0,0.0,-0.122,0.0,N/A
2193.132861682,-0.115,0.062,0.993,0.0,0.0,-0.122,0.0,N/A
2193.142900434,-0.115,0.062,0.993,0.0,0.0,-0.122,0.0,N/A
2193.152816395,-0.114,0.061,0.993,0.0,0.0,-0.122,0.0,N/A
2193.162863897,-0.114,0.061,0.993,0.0,0.0,-0.061,0.0,N/A
2193.173065105,-0.114,0.061,0.993,0.0,0.0,-0.061,0.0,N/A
2193.183119023,-0.114,0.061,0.993,0.0,0.0,-0.061,0.0,N/A
2193.193166233,-0.114,0.061,0.993,0.0,0.0,-0.122,0.0,N/A
2193.203237651,-0.114,0.061,0.993,0.0,0.0,-0.122,0.0,N/A
2193.213264152,-0.114,0.061,0.993,0.0,0.0,-0.122,0.0,N/A
2193.223490152,-0.114,0.061,0.993,0.0,0.0,0.0,0.0,N/A
2193.233542611,-0.114,0.061,0.993,0.0,0.0,-0.122,0.0,N/A
2193.243593029,-0.114,0.061,0.993,0.0,0.0,-0.122,0.0,N/A
2193.253629448,-0.114,0.061,0.993,0.0,0.0,-0.122,0.0,N/A
2193.263856614,-0.114,0.061,0.993,0.0,0.0,-0.122,0.0,N/A
2193.273888365,-0.114,0.061,0.993,0.0,0.0,-0.122,0.0,N/A
2193.283981366,-0.114,0.062,0.993,0.0,0.0,-0.122,0.0,N/A
2193.293989201,-0.114,0.062,0.993,0.0,0.0,-0.122,0.0,N/A
2193.304221617,-0.114,0.062,0.993,0.0,0.0,-0.122,0.0,N/A
2193.314282244,-0.114,0.062,0.993,0.0,0.0,-0.122,0.0,N/A
2193.324322162,-0.114,0.062,0.993,0.0,0.0,-0.122,0.0,N/A
2193.334357414,-0.114,0.062,0.993,0.0,0.0,0.0,0.0,N/A
2193.344575246,-0.114,0.062,0.993,0.0,0.0,-0.122,0.0,N/A
2193.354627706,-0.114,0.062,0.993,0.0,0.0,-0.122,0.0,N/A
2193.364909413,-0.114,0.062,0.993,0.0,0.0,-0.122,0.0,N/A
2193.374752459,-0.114,0.062,0.993,0.0,0.0,-0.122,0.0,N/A
2193.385000916,-0.114,0.062,0.993,0.0,0.0,-0.122,0.0,N/A
2193.395010501,-0.114,0.062,0.993,0.0,0.0,-0.122,0.0,N/A
2193.405136168,-0.114,0.062,0.993,0.0,0.0,-0.122,0.0,N/A
2193.415273502,-0.114,0.062,0.993,0.0,0.0,-0.122,0.0,N/A
2193.425316045,-0.114,0.062,0.993,0.0,0.0,-0.122,0.0,N/A
2193.435376088,-0.114,0.062,0.993,0.0,0.0,-0.122,0.0,N/A
2193.445466756,-0.114,0.062,0.993,0.0,0.0,0.0,0.0,N/A
2193.455485674,-0.114,0.062,0.993,0.0,0.0,-0.122,0.0,N/A
2193.465514218,-0.114,0.062,0.993,0.0,0.0,-0.122,0.0,N/A
2193.475752175,-0.114,0.062,0.993,0.0,0.0,-0.122,0.0,N/A
2193.485797635,-0.114,0.062,0.993,0.0,0.0,-0.122,0.0,N/A
2193.495866136,-0.114,0.062,0.993,0.0,0.0,-0.122,0.0,N/A
2193.505892055,-0.114,0.062,0.993,0.0,0.0,-0.122,0.0,N/A
2193.516153637,-0.114,0.062,0.993,0.0,0.0,-0.122,0.0,N/A
2193.526212513,-0.114,0.062,0.993,0.0,0.0,-0.122,0.0,N/A
2193.536270806,-0.114,0.062,0.993,0.0,0.0,-0.122,0.0,N/A
2193.546308391,-0.114,0.062,0.993,0.0,0.0,-0.122,0.0,N/A
2193.556526224,-0.114,0.062,0.993,0.0,0.0,0.0,0.0,N/A
2193.5665746,-0.114,0.062,0.993,0.0,0.0,-0.122,0.0,N/A
2193.576594102,-0.113,0.062,0.993,0.0,0.0,-0.122,0.0,N/A
2193.586681561,-0.114,0.062,0.993,0.0,0.0,-0.122,0.0,N/A
2193.596904936,-0.114,0.062,0.993,0.0,0.0,-0.122,0.0,N/A
2193.607022436,-0.113,0.062,0.993,0.0,0.0,-0.122,0.0,N/A
2193.61701773,-0.113,0.062,0.993,0.0,0.0,-0.122,0.0,N/A
2193.627094398,-0.113,0.062,0.993,0.0,0.0,-0.122,0.0,N/A
2193.637270814,-0.114,0.062,0.993,0.0,0.0,-0.122,0.0,N/A
2193.647319483,-0.114,0.062,0.993,0.0,0.0,-0.122,0.0,N/A
2193.657380984,-0.113,0.062,0.993,0.0,0.0,0.0,0.0,N/A
2193.667585108,-0.113,0.062,0.993,0.0,0.0,-0.122,0.0,N/A
2193.67764486,-0.113,0.062,0.993,0.0,0.0,-0.122,0.0,N/A
2193.687694111,-0.113,0.062,0.993,0.0,0.0,-0.122,0.0,N/A
2193.697909611,-0.113,0.062,0.993,0.0,0.0,-0.122,0.0,N/A
2193.708013986,-0.113,0.062,0.993,0.0,0.0,-0.122,0.0,N/A
2193.718013363,-0.113,0.062,0.993,0.0,0.0,-0.122,0.0,N/A
2193.728216905,-0.113,0.062,0.993,0.0,0.0,-0.122,0.0,N/A
2193.738268198,-0.114,0.062,0.993,0.0,0.0,-0.122,0.0,N/A
2193.748312199,-0.114,0.062,0.993,0.0,0.0,-0.122,0.0,N/A
2193.758382742,-0.113,0.062,0.993,0.0,0.0,0.0,0.0,N/A
2193.768603491,-0.114,0.062,0.993,0.0,0.0,-0.122,0.0,N/A
2193.77864166,-0.113,0.062,0.993,0.0,0.0,-0.122,0.0,N/A
2193.788687119,-0.114,0.062,0.993,0.0,0.0,-0.122,0.0,N/A
2193.798921285,-0.114,0.062,0.993,0.0,0.0,-0.122,0.0,N/A
2193.809026828,-0.114,0.062,0.993,0.0,0.0,-0.122,0.0,N/A
2193.819034955,-0.114,0.062,0.993,0.0,0.0,-0.122,0.0,N/A
2193.829031123,-0.114,0.062,0.993,0.0,0.0,-0.122,0.0,N/A
2193.839252456,-0.114,0.062,0.993,0.0,0.0,-0.122,0.0,N/A
2193.849296749,-0.114,0.062,0.993,0.0,0.0,-0.122,0.0,N/A
2193.859350667,-0.114,0.062,0.993,0.0,0.0,-0.122,0.0,N/A
2193.869406919,-0.114,0.062,0.993,0.0,0.0,0.0,0.0,N/A
2193.87945967,-0.114,0.062,0.993,0.0,0.0,-0.122,0.0,N/A
2193.88967517,-0.114,0.062,0.993,0.0,0.0,-0.122,0.0,N/A
2193.899734046,-0.114,0.062,0.993,0.0,0.0,-0.122,0.0,N/A
2193.909972003,-0.114,0.062,0.993,0.0,0.0,-0.122,0.0,N/A
2193.919990339,-0.114,0.062,0.993,0.0,0.0,-0.122,0.0,N/A
2193.930040173,-0.114,0.062,0.993,0.0,0.0,-0.122,0.0,N/A
2193.940098466,-0.114,0.062,0.993,0.0,0.0,-0.122,0.0,N/A
2193.950232592,-0.114,0.062,0.993,0.0,0.0,-0.122,0.0,N/A
2193.960208927,-0.114,0.062,0.993,0.0,0.0,-0.122,0.0,N/A
2193.970415094,-0.114,0.062,0.993,0.0,0.0,-0.122,0.0,N/A
2193.980471345,-0.114,0.062,0.993,0.0,0.0,-0.122,0.0,N/A
2193.990518846,-0.114,0.062,0.993,0.0,0.0,-0.122,0.0,N/A
2194.000561681,-0.114,0.062,0.993,0.0,0.0,-0.122,0.0,N/A
2194.010789722,-0.114,0.062,0.993,0.0,0.0,-0.122,0.0,N/A
2194.020858515,-0.114,0.062,0.993,0.0,0.0,-0.122,0.0,N/A
2194.030882684,-0.114,0.062,0.993,0.0,0.0,-0.122,0.0,N/A
2194.041462178,-0.114,0.061,0.993,0.0,0.0,-0.122,0.0,N/A
2194.051483722,-0.114,0.061,0.993,0.0,0.0,-0.122,0.0,N/A
2194.061688138,-0.114,0.061,0.993,0.0,0.0,-0.122,0.0,N/A
2194.071599433,-0.114,0.061,0.993,0.0,0.0,0.0,0.0,N/A
2194.081704684,-0.114,0.061,0.993,0.0,0.0,-0.122,0.0,N/A
2194.091870017,-0.114,0.061,0.993,0.0,0.0,-0.122,0.0,N/A
2194.102112349,-0.114,0.061,0.993,0.0,0.0,-0.122,0.0,N/A
2194.112329599,-0.114,0.061,0.993,0.0,0.0,-0.122,0.0,N/A
2194.122208519,-0.114,0.061,0.993,0.0,0.0,-0.122,0.0,N/A
2194.132283145,-0.114,0.061,0.993,0.0,0.0,-0.122,0.0,N/A
2194.14249427,-0.114,0.061,0.993,0.0,0.0,-0.122,0.0,N/A
2194.152694019,-0.114,0.061,0.993,0.0,0.0,-0.122,0.0,N/A
2194.162607939,-0.114,0.061,0.993,0.0,0.0,-0.122,0.0,N/A
2194.172635024,-0.114,0.061,0.993,0.0,0.0,0.0,0.0,N/A
2194.182868607,-0.114,0.061,0.993,0.0,0.0,-0.122,0.0,N/A
2194.193060773,-0.114,0.061,0.993,0.0,0.0,-0.122,0.0,N/A
2194.203123149,-0.114,0.061,0.993,0.0,0.0,-0.122,0.0,N/A
2194.212962987,-0.114,0.061,0.993,0.0,0.0,-0.122,0.0,N/A
2194.222880115,-0.114,0.061,0.993,0.0,0.0,-0.122,0.0,N/A
2194.233153655,-0.114,0.061,0.993,0.0,0.0,-0.122,0.0,N/A
2194.243139616,-0.114,0.061,0.993,0.0,0.0,-0.061,0.0,N/A
2194.253187992,-0.114,0.061,0.993,0.0,0.0,-0.061,0.0,N/A
2194.263397075,-0.114,0.061,0.993,0.0,0.0,-0.061,0.0,N/A
2194.27339441,-0.114,0.061,0.993,0.0,0.0,0.0,0.0,N/A
2194.283514536,-0.114,0.061,0.993,0.0,0.0,-0.061,0.0,N/A
2194.293532288,-0.114,0.061,0.993,0.0,0.0,-0.061,0.0,N/A
2194.303759745,-0.114,0.061,0.993,0.0,0.0,-0.122,0.0,N/A
2194.313803164,-0.114,0.061,0.993,0.0,0.0,-0.122,0.0,N/A
2194.323848623,-0.114,0.061,0.993,0.0,0.0,-0.061,0.0,N/A
2194.333892625,-0.114,0.061,0.993,0.0,0.0,-0.061,0.0,N/A
2194.344133791,-0.114,0.061,0.993,0.0,0.0,-0.061,0.0,N/A
2194.354167292,-0.114,0.061,0.993,0.0,0.0,-0.061,0.0,N/A
2194.36421246,-0.114,0.061,0.993,0.0,0.0,-0.061,0.0,N/A
2194.374301086,-0.114,0.061,0.993,0.0,0.0,-0.061,0.0,N/A
2194.384500544,-0.114,0.061,0.993,0.0,0.0,0.0,0.0,N/A
2194.394536671,-0.114,0.061,0.993,0.0,0.0,-0.061,0.0,N/A
2194.404586506,-0.114,0.061,0.993,0.0,0.0,-0.061,0.0,N/A
2194.414633132,-0.114,0.061,0.993,0.0,0.0,-0.061,0.0,N/A
2194.424855923,-0.114,0.061,0.993,0.0,0.0,-0.061,0.0,N/A
2194.4349078,-0.114,0.061,0.993,0.0,0.0,-0.061,0.0,N/A
2194.445089174,-0.114,0.061,0.993,0.0,0.0,-0.061,0.0,N/A
2194.455173425,-0.114,0.061,0.993,0.0,0.0,-0.061,0.0,N/A
2194.465229677,-0.114,0.061,0.993,0.0,0.0,-0.061,0.0,N/A
2194.475441093,-0.114,0.061,0.993,0.0,0.0,-0.061,0.0,N/A
2194.485530594,-0.114,0.061,0.993,0.0,0.0,0.0,0.0,N/A
2194.495542512,-0.114,0.061,0.993,0.0,0.0,-0.061,0.0,N/A
2194.505592639,-0.114,0.061,0.993,0.0,0.0,-0.061,0.0,N/A
2194.515812513,-0.114,0.061,0.993,0.0,0.0,-0.061,0.0,N/A
2194.525867598,-0.114,0.061,0.993,0.0,0.0,-0.061,0.0,N/A
2194.535904016,-0.114,0.061,0.993,0.0,0.0,-0.061,0.0,N/A
2194.546130307,-0.114,0.061,0.993,0.0,0.0,-0.061,0.0,N/A
2194.556173142,-0.114,0.062,0.993,0.0,0.0,-0.061,0.0,N/A
2194.566224143,-0.114,0.062,0.993,0.0,0.0,-0.061,0.0,N/A
2194.576287978,-0.114,0.062,0.993,0.0,0.0,-0.061,0.0,N/A
2194.58633198,-0.114,0.062,0.993,0.0,0.0,-0.061,0.0,N/A
2194.596539604,-0.114,0.062,0.993,0.0,0.0,0.0,0.0,N/A
2194.606608105,-0.114,0.062,0.993,0.0,0.0,-0.122,0.0,N/A
2194.616641899,-0.114,0.062,0.993,0.0,0.0,-0.122,0.0,N/A
2194.626685608,-0.114,0.062,0.993,0.0,0.0,-0.122,0.0,N/A
2194.636913358,-0.114,0.062,0.993,0.0,0.0,-0.122,0.0,N/A
2194.647001692,-0.114,0.062,0.993,0.0,0.0,-0.122,0.0,N/A
2194.657176942,-0.114,0.062,0.993,0.0,0.0,-0.122,0.0,N/A
2194.667222693,-0.114,0.062,0.993,0.0,0.0,-0.122,0.0,N/A
2194.677352152,-0.114,0.062,0.993,0.0,0.0,-0.122,0.0,N/A
2194.687508152,-0.114,0.062,0.993,0.0,0.0,-0.122,0.0,N/A
2194.697539029,-0.114,0.062,0.993,0.0,0.0,0.0,0.0,N/A
2194.707549198,-0.114,0.062,0.993,0.0,0.0,-0.122,0.0,N/A
2194.717644532,-0.114,0.062,0.993,0.0,0.0,-0.122,0.0,N/A
2194.727683867,-0.114,0.062,0.993,0.0,0.0,-0.122,0.0,N/A
2194.737921533,-0.114,0.062,0.993,0.0,0.0,-0.122,0.0,N/A
2194.748009284,-0.114,0.062,0.993,0.0,0.0,-0.122,0.0,N/A
2194.758012452,-0.114,0.062,0.993,0.0,0.0,-0.122,0.0,N/A
2194.768055287,-0.114,0.062,0.993,0.0,0.0,-0.122,0.0,N/A
2194.778269037,-0.114,0.062,0.993,0.0,0.0,-0.122,0.0,N/A
2194.788317705,-0.114,0.062,0.993,0.0,0.0,-0.122,0.0,N/A
2194.798371331,-0.114,0.062,0.993,0.0,0.0,-0.122,0.0,N/A
2194.808419124,-0.114,0.062,0.993,0.0,0.0,0.0,0.0,N/A
2194.818627915,-0.114,0.062,0.993,0.0,0.0,-0.122,0.0,N/A
2194.828688542,-0.114,0.062,0.993,0.0,0.0,-0.122,0.0,N/A
2194.838745376,-0.114,0.062,0.993,0.0,0.0,-0.122,0.0,N/A
2194.848776545,-0.114,0.062,0.993,0.0,0.0,-0.122,0.0,N/A
2194.859001669,-0.114,0.062,0.993,0.0,0.0,-0.122,0.0,N/A
2194.869051795,-0.114,0.062,0.993,0.0,0.0,-0.122,0.0,N/A
2194.879113297,-0.114,0.062,0.993,0.0,0.0,-0.122,0.0,N/A
2194.889139798,-0.114,0.062,0.993,0.0,0.0,-0.122,0.0,N/A
2194.899194883,-0.114,0.062,0.993,0.0,0.0,-0.122,0.0,N/A
2194.909496131,-0.114,0.062,0.993,0.0,0.0,-0.122,0.0,N/A
2194.919458176,-0.114,0.062,0.993,0.0,0.0,-0.122,0.0,N/A
2194.929671342,-0.114,0.062,0.993,0.0,0.0,-0.122,0.0,N/A
2194.939734593,-0.114,0.062,0.993,0.0,0.0,-0.122,0.0,N/A
2194.949826136,-0.114,0.062,0.993,0.0,0.0,-0.122,0.0,N/A
2194.960062051,-0.114,0.062,0.993,0.0,0.0,-0.122,0.0,N/A
2194.970043345,-0.114,0.062,0.993,0.0,0.0,-0.122,0.0,N/A
2194.980119138,-0.114,0.062,0.993,0.0,0.0,-0.122,0.0,N/A
2194.990146807,-0.114,0.062,0.993,0.0,0.0,-0.122,0.0,N/A
2195.000196641,-0.114,0.062,0.993,0.0,0.0,-0.122,0.0,N/A
2195.010417682,-0.114,0.062,0.993,0.0,0.0,-0.122,0.0,N/A
2195.020554724,-0.114,0.062,0.993,0.0,0.0,-0.122,0.0,N/A
2195.030682142,-0.114,0.062,0.993,0.0,0.0,-0.122,0.0,N/A
2195.040793226,-0.114,0.062,0.993,0.0,0.0,-0.122,0.0,N/A
2195.05077627,-0.114,0.062,0.993,0.0,0.0,-0.122,0.0,N/A
2195.060998769,-0.114,0.062,0.993,0.0,0.0,-0.122,0.0,N/A
2195.071045979,-0.114,0.062,0.993,0.0,0.0,-0.122,0.0,N/A
2195.081123813,-0.114,0.062,0.993,0.0,0.0,-0.122,0.0,N/A
2195.091149148,-0.114,0.062,0.993,0.0,0.0,-0.122,0.0,N/A
2195.101332856,-0.114,0.062,0.993,0.0,0.0,-0.122,0.0,N/A
2195.111493523,-0.114,0.062,0.993,0.0,0.0,-0.122,0.0,N/A
2195.121454109,-0.114,0.062,0.993,0.0,0.0,0.0,0.0,N/A
2195.131498694,-0.114,0.062,0.993,0.0,0.0,-0.122,0.0,N/A
2195.141544154,-0.114,0.062,0.993,0.0,0.0,-0.122,0.0,N/A
2195.151757611,-0.114,0.062,0.993,0.0,0.0,-0.122,0.0,N/A
2195.161808029,-0.114,0.062,0.993,0.0,0.0,-0.122,0.0,N/A
2195.171857281,-0.114,0.062,0.993,0.0,0.0,-0.122,0.0,N/A
2195.181897782,-0.114,0.062,0.993,0.0,0.0,-0.122,0.0,N/A
2195.192126115,-0.114,0.061,0.993,0.0,0.0,-0.122,0.0,N/A
2195.202173033,-0.114,0.061,0.993,0.0,0.0,-0.122,0.0,N/A
2195.212209451,-0.114,0.061,0.993,0.0,0.0,-0.122,0.0,N/A
2195.222442451,-0.114,0.061,0.993,0.0,0.0,-0.122,0.0,N/A
2195.232489952,-0.114,0.061,0.993,0.0,0.0,0.0,0.0,N/A
2195.242529579,-0.114,0.061,0.993,0.0,0.0,-0.122,0.0,N/A
2195.25257708,-0.114,0.061,0.993,0.0,0.0,-0.122,0.0,N/A
2195.26278033,-0.114,0.061,0.993,0.0,0.0,-0.122,0.0,N/A
2195.272837164,-0.114,0.061,0.993,0.0,0.0,-0.122,0.0,N/A
2195.282884374,-0.114,0.061,0.993,0.0,0.0,-0.122,0.0,N/A
2195.292991958,-0.114,0.061,0.993,0.0,0.0,-0.122,0.0,N/A
2195.303156125,-0.114,0.061,0.993,0.0,0.0,-0.122,0.0,N/A
2195.313200127,-0.114,0.061,0.993,0.0,0.0,-0.122,0.0,N/A
2195.32324967,-0.114,0.061,0.993,0.0,0.0,-0.122,0.0,N/A
2195.333295129,-0.114,0.061,0.993,0.0,0.0,-0.122,0.0,N/A
2195.343506837,-0.114,0.061,0.993,0.0,0.0,0.0,0.0,N/A
2195.353608005,-0.114,0.061,0.993,0.0,0.0,-0.122,0.0,N/A
2195.363641215,-0.114,0.061,0.993,0.0,0.0,-0.122,0.0,N/A
2195.373658967,-0.114,0.061,0.993,0.0,0.0,-0.122,0.0,N/A
2195.383702676,-0.114,0.061,0.993,0.0,0.0,-0.122,0.0,N/A
2195.393915259,-0.114,0.061,0.993,0.0,0.0,-0.122,0.0,N/A
2195.403988427,-0.114,0.061,0.993,0.0,0.0,-0.122,0.0,N/A
2195.414011429,-0.114,0.061,0.993,0.0,0.0,-0.061,0.0,N/A
2195.424243845,-0.114,0.061,0.993,0.0,0.0,-0.061,0.0,N/A
2195.434281138,-0.114,0.061,0.993,0.0,0.0,-0.061,0.0,N/A
2195.444322514,-0.114,0.061,0.993,0.0,0.0,-0.061,0.0,N/A
2195.454374974,-0.114,0.061,0.993,0.0,0.0,0.0,0.0,N/A
2195.464589015,-0.114,0.061,0.993,0.0,0.0,-0.061,0.0,N/A
2195.474656642,-0.114,0.061,0.993,0.0,0.0,-0.061,0.0,N/A
2195.484655144,-0.114,0.061,0.993,0.0,0.0,-0.061,0.0,N/A
2195.494904184,-0.114,0.061,0.993,0.0,0.0,-0.061,0.0,N/A
2195.50499281,-0.114,0.061,0.993,0.0,0.0,-0.061,0.0,N/A
2195.51500852,-0.114,0.061,0.993,0.0,0.0,-0.061,0.0,N/A
2195.525049605,-0.114,0.061,0.993,0.0,0.0,-0.061,0.0,N/A
2195.535275896,-0.114,0.061,0.993,0.0,0.0,-0.061,0.0,N/A
2195.545403022,-0.114,0.061,0.993,0.0,0.0,-0.061,0.0,N/A
2195.555326566,-0.114,0.061,0.993,0.0,0.0,-0.061,0.0,N/A
2195.565411109,-0.114,0.061,0.993,0.0,0.0,0.0,0.0,N/A
2195.575459486,-0.114,0.061,0.993,0.0,0.0,-0.061,0.0,N/A
2195.58567586,-0.114,0.061,0.993,0.0,0.0,-0.061,0.0,N/A
2195.59572832,-0.114,0.061,0.993,0.0,0.0,-0.061,0.0,N/A
2195.60576503,-0.114,0.061,0.993,0.0,0.0,-0.061,0.0,N/A
2195.615997154,-0.114,0.061,0.993,0.0,0.0,-0.061,0.0,N/A
2195.626028322,-0.114,0.061,0.993,0.0,0.0,-0.061,0.0,N/A
2195.636106157,-0.114,0.061,0.993,0.0,0.0,-0.061,0.0,N/A
2195.64613995,-0.114,0.061,0.993,0.0,0.0,-0.061,0.0,N/A
2195.656371199,-0.114,0.061,0.993,0.0,0.0,-0.061,0.0,N/A
2195.666416076,-0.114,0.061,0.993,0.0,0.0,-0.061,0.0,N/A
2195.676455994,-0.114,0.061,0.993,0.0,0.0,0.0,0.0,N/A
2195.686504954,-0.114,0.061,0.993,0.0,0.0,-0.061,0.0,N/A
2195.696730078,-0.114,0.062,0.993,0.0,0.0,-0.122,0.0,N/A
2195.706765913,-0.114,0.062,0.993,0.0,0.0,-0.122,0.0,N/A
2195.716983746,-0.114,0.062,0.993,0.0,0.0,-0.122,0.0,N/A
2195.726864999,-0.114,0.062,0.993,0.0,0.0,-0.061,0.0,N/A
2195.737105582,-0.114,0.062,0.993,0.0,0.0,-0.122,0.0,N/A
2195.747130625,-0.114,0.062,0.993,0.0,0.0,-0.122,0.0,N/A
2195.757178126,-0.114,0.062,0.993,0.0,0.0,-0.122,0.0,N/A
2195.767237586,-0.114,0.062,0.993,0.0,0.0,-0.061,0.0,N/A
2195.777443461,-0.114,0.062,0.993,0.0,0.0,-0.061,0.0,N/A
2195.787495045,-0.114,0.062,0.993,0.0,0.0,0.0,0.0,N/A
2195.797537297,-0.114,0.062,0.993,0.0,0.0,-0.061,0.0,N/A
2195.807791879,-0.114,0.062,0.993,0.0,0.0,-0.061,0.0,N/A
2195.817814298,-0.114,0.062,0.993,0.0,0.0,-0.061,0.0,N/A
2195.827874049,-0.114,0.062,0.993,0.0,0.0,-0.061,0.0,N/A
2195.837996216,-0.114,0.062,0.993,0.0,0.0,-0.122,0.0,N/A
2195.848130925,-0.114,0.062,0.993,0.0,0.0,-0.122,0.0,N/A
2195.858180468,-0.114,0.062,0.993,0.0,0.0,-0.122,0.0,N/A
2195.868396259,-0.114,0.062,0.993,0.0,0.0,-0.122,0.0,N/A
2195.878517551,-0.114,0.062,0.993,0.0,0.0,-0.122,0.0,N/A
2195.888488345,-0.114,0.062,0.993,0.0,0.0,-0.122,0.0,N/A
2195.898607013,-0.114,0.062,0.993,0.0,0.0,-0.122,0.0,N/A
2195.90874843,-0.114,0.062,0.993,0.0,0.0,-0.122,0.0,N/A
2195.918881097,-0.114,0.062,0.993,0.0,0.0,-0.122,0.0,N/A
2195.928849558,-0.114,0.062,0.993,0.0,0.0,-0.061,0.0,N/A
2195.938885976,-0.114,0.062,0.993,0.0,0.0,-0.061,0.0,N/A
2195.949108475,-0.114,0.062,0.993,0.0,0.0,-0.122,0.0,N/A
2195.959153935,-0.114,0.062,0.993,0.0,0.0,-0.122,0.0,N/A
2195.969190353,-0.114,0.062,0.993,0.0,0.0,-0.122,0.0,N/A
2195.979268771,-0.114,0.062,0.993,0.0,0.0,-0.122,0.0,N/A
2195.98947727,-0.114,0.062,0.993,0.0,0.0,-0.122,0.0,N/A
2195.999509314,-0.114,0.062,0.993,0.0,0.0,0.0,0.0,N/A
2196.009550982,-0.114,0.062,0.993,0.0,0.0,-0.122,0.0,N/A
2196.019618608,-0.114,0.062,0.993,0.0,0.0,-0.122,0.0,N/A
2196.02965736,-0.114,0.062,0.993,0.0,0.0,-0.122,0.0,N/A
2196.040238605,-0.114,0.062,0.993,0.0,0.0,-0.122,0.0,N/A
2196.050316439,-0.114,0.062,0.993,0.0,0.0,-0.122,0.0,N/A
2196.060167943,-0.114,0.062,0.993,0.0,0.0,-0.122,0.0,N/A
2196.070548524,-0.114,0.062,0.993,0.0,0.0,-0.122,0.0,N/A
2196.080905188,-0.114,0.062,0.993,0.0,0.0,-0.122,0.0,N/A
2196.090455112,-0.114,0.062,0.993,0.0,0.0,-0.122,0.0,N/A
2196.100617529,-0.114,0.062,0.993,0.0,0.0,-0.122,0.0,N/A
2196.111759642,-0.114,0.062,0.993,0.0,0.0,-0.122,0.0,N/A
2196.122359678,-0.114,0.062,0.993,0.0,0.0,-0.122,0.0,N/A
2196.132220224,-0.114,0.062,0.993,0.0,0.0,-0.122,0.0,N/A
2196.142272017,-0.114,0.062,0.993,0.0,0.0,-0.122,0.0,N/A
2196.152272269,-0.114,0.062,0.993,0.0,0.0,-0.122,0.0,N/A
2196.162492727,-0.114,0.062,0.993,0.0,0.0,-0.122,0.0,N/A
2196.172532645,-0.114,0.062,0.993,0.0,0.0,-0.122,0.0,N/A
2196.182602896,-0.114,0.062,0.993,0.0,0.0,-0.122,0.0,N/A
2196.192718938,-0.114,0.062,0.993,0.0,0.0,-0.122,0.0,N/A
2196.20285948,-0.114,0.062,0.993,0.0,0.0,-0.122,0.0,N/A
2196.212906399,-0.114,0.062,0.993,0.0,0.0,-0.122,0.0,N/A
2196.222988316,-0.114,0.062,0.993,0.0,0.0,-0.122,0.0,N/A
2196.233005485,-0.114,0.062,0.993,0.0,0.0,-0.122,0.0,N/A
2196.243250442,-0.114,0.062,0.993,0.0,0.0,-0.122,0.0,N/A
2196.253270527,-0.114,0.062,0.993,0.0,0.0,-0.122,0.0,N/A
2196.26332182,-0.114,0.062,0.993,0.0,0.0,-0.122,0.0,N/A
2196.273539361,-0.114,0.062,0.993,0.0,0.0,0.0,0.0,N/A
2196.283613113,-0.114,0.062,0.993,0.0,0.0,-0.122,0.0,N/A
2196.293632614,-0.114,0.062,0.993,0.0,0.0,-0.122,0.0,N/A
2196.303674866,-0.114,0.062,0.993,0.0,0.0,-0.122,0.0,N/A
2196.313759992,-0.114,0.062,0.993,0.0,0.0,-0.122,0.0,N/A
2196.323981325,-0.114,0.062,0.993,0.0,0.0,-0.122,0.0,N/A
2196.334006951,-0.114,0.062,0.993,0.0,0.0,-0.122,0.0,N/A
2196.344051536,-0.114,0.062,0.993,0.0,0.0,-0.122,0.0,N/A
2196.354113621,-0.114,0.062,0.993,0.0,0.0,-0.122,0.0,N/A
2196.364172789,-0.114,0.062,0.993,0.0,0.0,-0.122,0.0,N/A
2196.37436758,-0.114,0.062,0.993,0.0,0.0,-0.122,0.0,N/A
2196.384414498,-0.114,0.062,0.993,0.0,0.0,-0.122,0.0,N/A
2196.394502249,-0.114,0.062,0.993,0.0,0.0,0.0,0.0,N/A
2196.404534001,-0.114,0.062,0.993,0.0,0.0,-0.122,0.0,N/A
2196.414738417,-0.114,0.062,0.993,0.0,0.0,-0.122,0.0,N/A
2196.424788252,-0.114,0.062,0.993,0.0,0.0,-0.122,0.0,N/A
2196.434869586,-0.114,0.062,0.993,0.0,0.0,-0.122,0.0,N/A
2196.44488063,-0.114,0.062,0.993,0.0,0.0,-0.122,0.0,N/A
2196.455120337,-0.114,0.061,0.993,0.0,0.0,-0.122,0.0,N/A
2196.465155297,-0.114,0.061,0.993,0.0,0.0,-0.122,0.0,N/A
2196.475199882,-0.114,0.061,0.993,0.0,0.0,-0.122,0.0,N/A
2196.4852503,-0.114,0.061,0.993,0.0,0.0,-0.122,0.0,N/A
2196.495482424,-0.114,0.061,0.993,0.0,0.0,-0.122,0.0,N/A
2196.505517384,-0.114,0.061,0.993,0.0,0.0,0.0,0.0,N/A
2196.515579761,-0.114,0.061,0.993,0.0,0.0,-0.122,0.0,N/A
2196.525619679,-0.114,0.061,0.993,0.0,0.0,-0.122,0.0,N/A
2196.535666889,-0.114,0.061,0.993,0.0,0.0,-0.122,0.0,N/A
2196.545880055,-0.114,0.061,0.993,0.0,0.0,-0.122,0.0,N/A
2196.555976847,-0.114,0.061,0.993,0.0,0.0,-0.122,0.0,N/A
2196.565986141,-0.114,0.061,0.993,0.0,0.0,-0.122,0.0,N/A
2196.576031892,-0.114,0.061,0.993,0.0,0.0,-0.122,0.0,N/A
2196.586126643,-0.114,0.061,0.993,0.0,0.0,-0.122,0.0,N/A
2196.59628906,-0.114,0.061,0.993,0.0,0.0,-0.122,0.0,N/A
2196.606348228,-0.114,0.061,0.993,0.0,0.0,-0.122,0.0,N/A
2196.616383771,-0.114,0.061,0.993,0.0,0.0,-0.122,0.0,N/A
2196.626452564,-0.114,0.061,0.993,0.0,0.0,0.0,0.0,N/A
2196.636662522,-0.114,0.061,0.993,0.0,0.0,-0.122,0.0,N/A
2196.646714398,-0.114,0.061,0.993,0.0,0.0,-0.122,0.0,N/A
2196.656760733,-0.114,0.061,0.993,0.0,0.0,-0.061,0.0,N/A
2196.666980024,-0.114,0.061,0.993,0.0,0.0,-0.061,0.0,N/A
2196.677026651,-0.114,0.061,0.993,0.0,0.0,-0.061,0.0,N/A
2196.687070069,-0.114,0.061,0.993,0.0,0.0,-0.061,0.0,N/A
2196.697111446,-0.114,0.061,0.993,0.0,0.0,-0.061,0.0,N/A
2196.70718578,-0.114,0.061,0.993,0.0,0.0,-0.061,0.0,N/A
2196.717391946,-0.114,0.061,0.993,0.0,0.0,-0.061,0.0,N/A
2196.727430406,-0.114,0.061,0.993,0.0,0.0,-0.061,0.0,N/A
2196.737480533,-0.114,0.061,0.993,0.0,0.0,-0.061,0.0,N/A
2196.747525992,-0.114,0.061,0.993,0.0,0.0,-0.061,0.0,N/A
2196.757739742,-0.114,0.061,0.993,0.0,0.0,-0.061,0.0,N/A
2196.767807076,-0.114,0.061,0.993,0.0,0.0,-0.061,0.0,N/A
2196.77781112,-0.114,0.061,0.993,0.0,0.0,-0.061,0.0,N/A
2196.787896538,-0.114,0.061,0.993,0.0,0.0,-0.061,0.0,N/A
2196.798113787,-0.114,0.061,0.993,0.0,0.0,-0.061,0.0,N/A
2196.808155455,-0.114,0.061,0.993,0.0,0.0,-0.061,0.0,N/A
2196.818223373,-0.114,0.061,0.993,0.0,0.0,-0.061,0.0,N/A
2196.82827875,-0.114,0.061,0.993,0.0,0.0,-0.061,0.0,N/A
2196.838478791,-0.114,0.061,0.993,0.0,0.0,-0.061,0.0,N/A
2196.848509084,-0.114,0.061,0.993,0.0,0.0,0.0,0.0,N/A
2196.858577877,-0.114,0.061,0.993,0.0,0.0,-0.061,0.0,N/A
2196.868627129,-0.114,0.061,0.993,0.0,0.0,-0.061,0.0,N/A
2196.878674338,-0.114,0.061,0.993,0.0,0.0,-0.061,0.0,N/A
2196.888886046,-0.114,0.061,0.993,0.0,0.0,-0.061,0.0,N/A
2196.898972922,-0.114,0.061,0.993,0.0,0.0,-0.061,0.0,N/A
2196.908971133,-0.114,0.061,0.993,0.0,0.0,-0.061,0.0,N/A
2196.919015717,-0.114,0.061,0.993,0.0,0.0,-0.061,0.0,N/A
2196.929084802,-0.114,0.061,0.993,0.0,0.0,-0.061,0.0,N/A
2196.939297385,-0.114,0.061,0.993,0.0,0.0,-0.061,0.0,N/A
2196.949365594,-0.114,0.061,0.993,0.0,0.0,-0.061,0.0,N/A
2196.959394721,-0.114,0.061,0.993,0.0,0.0,-0.061,0.0,N/A
2196.969436681,-0.114,0.062,0.993,0.0,0.0,0.0,0.0,N/A
2196.979648389,-0.114,0.062,0.993,0.0,0.0,-0.061,0.0,N/A
2196.989727681,-0.114,0.062,0.993,0.0,0.0,-0.061,0.0,N/A
2196.9997466,-0.114,0.062,0.993,0.0,0.0,-0.061,0.0,N/A
2197.009976391,-0.114,0.062,0.993,0.0,0.0,-0.061,0.0,N/A
2197.020259848,-0.114,0.062,0.993,0.0,0.0,-0.122,0.0,N/A
2197.030428389,-0.114,0.062,0.993,0.0,0.0,-0.061,0.0,N/A
2197.040837553,-0.114,0.062,0.993,0.0,0.0,-0.122,0.0,N/A
2197.050884471,-0.114,0.062,0.993,0.0,0.0,-0.061,0.0,N/A
2197.060399396,-0.114,0.062,0.993,0.0,0.0,-0.061,0.0,N/A
2197.071979878,-0.114,0.062,0.993,0.0,0.0,-0.061,0.0,N/A
2197.082041671,-0.114,0.062,0.993,0.0,0.0,-0.122,0.0,N/A
2197.092229754,-0.114,0.062,0.993,0.0,0.0,-0.122,0.0,N/A
2197.102499503,-0.114,0.062,0.993,0.0,0.0,-0.122,0.0,N/A
2197.112742711,-0.114,0.062,0.993,0.0,0.0,-0.122,0.0,N/A
2197.122719338,-0.114,0.062,0.993,0.0,0.0,-0.122,0.0,N/A
2197.133099627,-0.114,0.062,0.993,0.0,0.0,-0.122,0.0,N/A
2197.143332626,-0.114,0.062,0.993,0.0,0.0,-0.122,0.0,N/A
2197.153539959,-0.114,0.062,0.993,0.0,0.0,0.0,0.0,N/A
2197.163754292,-0.114,0.062,0.993,0.0,0.0,-0.122,0.0,N/A
2197.173976791,-0.114,0.062,0.993,0.0,0.0,-0.122,0.0,N/A
2197.18421329,-0.114,0.062,0.993,0.0,0.0,-0.122,0.0,N/A
2197.194490914,-0.114,0.062,0.993,0.0,0.0,0.0,0.0,N/A
2197.204632039,-0.114,0.062,0.993,0.0,0.0,-0.122,0.0,N/A
2197.214876705,-0.114,0.062,0.993,0.0,0.0,-0.122,0.0,N/A
2197.225074413,-0.114,0.062,0.993,0.0,0.0,-0.122,0.0,N/A
2197.235289329,-0.114,0.062,0.993,0.0,0.0,-0.122,0.0,N/A
2197.245508912,-0.114,0.062,0.993,0.0,0.0,0.0,0.0,N/A
2197.255729953,-0.114,0.062,0.993,0.0,0.0,-0.122,0.0,N/A
2197.265962952,-0.114,0.062,0.993,0.0,0.0,-0.122,0.0,N/A
2197.276205576,-0.114,0.062,0.993,0.0,0.0,-0.122,0.0,N/A
2197.286387534,-0.114,0.062,0.993,0.0,0.0,-0.122,0.0,N/A
2197.296607117,-0.114,0.062,0.993,0.0,0.0,-0.122,0.0,N/A
2197.306833991,-0.114,0.062,0.993,0.0,0.0,-0.122,0.0,N/A
2197.317034907,-0.114,0.062,0.993,0.0,0.0,-0.122,0.0,N/A
2197.327255365,-0.114,0.062,0.993,0.0,0.0,-0.122,0.0,N/A
2197.337465906,-0.114,0.062,0.993,0.0,0.0,-0.122,0.0,N/A
2197.34770153,-0.114,0.062,0.993,0.0,0.0,-0.122,0.0,N/A
2197.357967196,-0.114,0.062,0.993,0.0,0.0,-0.122,0.0,N/A
2197.368136029,-0.114,0.062,0.993,0.0,0.0,-0.122,0.0,N/A
2197.378466444,-0.114,0.062,0.993,0.0,0.0,-0.122,0.0,N/A
2197.388740276,-0.114,0.062,0.993,0.0,0.0,-0.122,0.0,N/A
2197.398964233,-0.114,0.062,0.993,0.0,0.0,-0.122,0.0,N/A
2197.409237482,-0.114,0.062,0.993,0.0,0.0,-0.122,0.0,N/A
2197.419383857,-0.114,0.062,0.993,0.0,0.0,-0.122,0.0,N/A
2197.429523816,-0.114,0.062,0.993,0.0,0.0,-0.122,0.0,N/A
2197.439845481,-0.114,0.062,0.993,0.0,0.0,-0.122,0.0,N/A
2197.449848358,-0.114,0.062,0.993,0.0,0.0,-0.122,0.0,N/A
2197.460208814,-0.114,0.062,0.993,0.0,0.0,-0.122,0.0,N/A
2197.470436855,-0.114,0.062,0.993,0.0,0.0,-0.122,0.0,N/A
2197.480670729,-0.114,0.062,0.993,0.0,0.0,-0.122,0.0,N/A
2197.490919769,-0.114,0.062,0.993,0.0,0.0,-0.122,0.0,N/A
2197.501085978,-0.114,0.062,0.993,0.0,0.0,-0.122,0.0,N/A
2197.51131081,-0.114,0.062,0.993,0.0,0.0,-0.122,0.0,N/A
2197.521731641,-0.114,0.062,0.993,0.0,0.0,-0.122,0.0,N/A
2197.53192264,-0.114,0.062,0.993,0.0,0.0,-0.122,0.0,N/A
2197.542175181,-0.114,0.062,0.993,0.0,0.0,-0.122,0.0,N/A
2197.55238718,-0.114,0.062,0.993,0.0,0.0,0.0,0.0,N/A
2197.562749386,-0.114,0.062,0.993,0.0,0.0,-0.122,0.0,N/A
2197.572995219,-0.114,0.062,0.993,0.0,0.0,-0.122,0.0,N/A
2197.583234635,-0.114,0.062,0.993,0.0,0.0,-0.122,0.0,N/A
2197.593653423,-0.114,0.062,0.993,0.0,0.0,-0.122,0.0,N/A
2197.603839173,-0.114,0.062,0.993,0.0,0.0,-0.122,0.0,N/A
2197.614058464,-0.114,0.062,0.993,0.0,0.0,-0.122,0.0,N/A
2197.624260255,-0.114,0.062,0.993,0.0,0.0,-0.122,0.0,N/A
2197.634480713,-0.114,0.062,0.993,0.0,0.0,0.0,0.0,N/A
2197.644709337,-0.114,0.062,0.993,0.0,0.0,-0.122,0.0,N/A
2197.654995711,-0.114,0.062,0.993,0.0,0.0,-0.122,0.0,N/A
2197.665118753,-0.114,0.062,0.993,0.0,0.0,-0.122,0.0,N/A
2197.67534621,-0.114,0.062,0.993,0.0,0.0,-0.122,0.0,N/A
2197.68557396,-0.114,0.062,0.993,0.0,0.0,-0.122,0.0,N/A
2197.695780709,-0.114,0.062,0.993,0.0,0.0,-0.122,0.0,N/A
2197.705993292,-0.114,0.062,0.993,0.0,0.0,-0.122,0.0,N/A
2197.71622075,-0.114,0.062,0.993,0.0,0.0,-0.122,0.0,N/A
2197.726429541,-0.114,0.061,0.993,0.0,0.0,-0.122,0.0,N/A
2197.736500084,-0.114,0.061,0.993,0.0,0.0,-0.122,0.0,N/A
2197.746855581,-0.114,0.061,0.993,0.0,0.0,-0.122,0.0,N/A
2197.757085664,-0.114,0.061,0.993,0.0,0.0,-0.122,0.0,N/A
2197.767296205,-0.114,0.061,0.993,0.0,0.0,-0.122,0.0,N/A
2197.777525412,-0.114,0.061,0.993,0.0,0.0,0.0,0.0,N/A
2197.787739162,-0.114,0.061,0.993,0.0,0.0,-0.122,0.0,N/A
2197.797972161,-0.114,0.061,0.993,0.0,0.0,-0.122,0.0,N/A
2197.808350117,-0.114,0.061,0.993,0.0,0.0,-0.122,0.0,N/A
2197.818624532,-0.114,0.061,0.993,0.0,0.0,0.0,0.0,N/A
2197.82881699,-0.114,0.061,0.993,0.0,0.0,-0.122,0.0,N/A
2197.83900099,-0.114,0.061,0.993,0.0,0.0,-0.122,0.0,N/A
2197.849221156,-0.114,0.061,0.993,0.0,0.0,-0.122,0.0,N/A
2197.85930249,-0.114,0.06,0.993,0.0,0.0,-0.122,0.0,N/A
2197.869533448,-0.114,0.06,0.993,0.0,0.0,-0.122,0.0,N/A
2197.879667865,-0.114,0.06,0.993,0.0,0.0,-0.122,0.0,N/A
2197.889964447,-0.114,0.06,0.993,0.0,0.0,-0.122,0.0,N/A
2197.900113447,-0.114,0.06,0.993,0.0,0.0,-0.122,0.0,N/A
2197.910333321,-0.114,0.06,0.993,0.0,0.0,-0.061,0.0,N/A
2197.920557862,-0.114,0.06,0.993,0.0,0.0,-0.061,0.0,N/A
2197.930778612,-0.114,0.06,0.993,0.0,0.0,-0.061,0.0,N/A
2197.940997903,-0.114,0.06,0.993,0.0,0.0,-0.061,0.0,N/A
2197.951227694,-0.114,0.06,0.993,0.0,0.0,-0.061,0.0,N/A
2197.961423943,-0.114,0.06,0.993,0.0,0.0,0.0,0.0,N/A
2197.971660151,-0.114,0.06,0.993,0.0,0.0,-0.061,0.0,N/A
2197.981953816,-0.114,0.06,0.993,0.0,0.0,-0.061,0.0,N/A
2197.992127316,-0.114,0.06,0.993,0.0,0.0,-0.061,0.0,N/A
2198.002344565,-0.114,0.06,0.993,0.0,0.0,-0.061,0.0,N/A
2198.012572023,-0.114,0.06,0.993,0.0,0.0,-0.061,0.0,N/A
2198.022797439,-0.114,0.06,0.993,0.0,0.0,-0.061,0.0,N/A
2198.033001272,-0.114,0.06,0.993,0.0,0.0,-0.061,0.0,N/A
2198.043212396,-0.114,0.06,0.993,0.0,0.0,-0.061,0.0,N/A
2198.053464062,-0.114,0.06,0.993,0.0,0.0,-0.061,0.0,N/A
2198.063648645,-0.114,0.06,0.993,0.0,0.0,-0.061,0.0,N/A
2198.073879311,-0.114,0.06,0.993,0.0,0.0,-0.061,0.0,N/A
2198.084089268,-0.114,0.06,0.993,0.0,0.0,-0.061,0.0,N/A
2198.094320809,-0.114,0.06,0.993,0.0,0.0,-0.061,0.0,N/A
2198.104608933,-0.114,0.061,0.993,0.0,0.0,-0.061,0.0,N/A
2198.114728475,-0.114,0.061,0.993,0.0,0.0,-0.061,0.0,N/A
2198.124952141,-0.114,0.061,0.993,0.0,0.0,-0.061,0.0,N/A
2198.135231806,-0.114,0.061,0.993,0.0,0.0,-0.061,0.0,N/A
2198.145479097,-0.114,0.061,0.993,0.0,0.0,-0.061,0.0,N/A
2198.155622264,-0.114,0.061,0.993,0.0,0.0,-0.061,0.0,N/A
2198.165871596,-0.114,0.061,0.993,0.0,0.0,-0.061,0.0,N/A
2198.176077763,-0.114,0.061,0.993,0.0,0.0,-0.061,0.0,N/A
2198.186293554,-0.114,0.061,0.993,0.0,0.0,-0.061,0.0,N/A
2198.196442262,-0.114,0.061,0.993,0.0,0.0,-0.061,0.0,N/A
2198.206846468,-0.114,0.061,0.993,0.0,0.0,-0.061,0.0,N/A
2198.216911177,-0.114,0.061,0.993,0.0,0.0,-0.061,0.0,N/A
2198.227098969,-0.114,0.061,0.993,0.0,0.0,-0.061,0.0,N/A
2198.237401675,-0.114,0.062,0.993,0.0,0.0,-0.061,0.0,N/A
2198.24772509,-0.114,0.062,0.993,0.0,0.0,-0.061,0.0,N/A
2198.257922215,-0.114,0.062,0.993,0.0,0.0,-0.061,0.0,N/A
2198.26815988,-0.114,0.062,0.993,0.0,0.0,-0.061,0.0,N/A
2198.278353505,-0.114,0.062,0.993,0.0,0.0,-0.061,0.0,N/A
2198.288657087,-0.114,0.062,0.993,0.0,0.0,-0.122,0.0,N/A
2198.298801712,-0.114,0.062,0.993,0.0,0.0,-0.061,0.0,N/A
2198.309027128,-0.114,0.062,0.993,0.0,0.0,-0.061,0.0,N/A
2198.319237669,-0.114,0.062,0.993,0.0,0.0,-0.061,0.0,N/A
2198.329466293,-0.114,0.062,0.993,0.0,0.0,0.0,0.0,N/A
2198.339678001,-0.114,0.062,0.993,0.0,0.0,-0.061,0.0,N/A
2198.3499355,-0.114,0.062,0.993,0.0,0.0,-0.061,0.0,N/A
2198.360153041,-0.114,0.062,0.993,0.0,0.0,-0.061,0.0,N/A
2198.37037379,-0.114,0.062,0.993,0.0,0.0,-0.122,0.0,N/A
2198.380582582,-0.114,0.062,0.993,0.0,0.0,-0.122,0.0,N/A
2198.390979495,-0.114,0.062,0.993,0.0,0.0,-0.122,0.0,N/A
2198.401171078,-0.114,0.062,0.993,0.0,0.0,-0.122,0.0,N/A
2198.411367036,-0.114,0.062,0.993,0.0,0.0,-0.122,0.0,N/A
2198.421584869,-0.114,0.062,0.993,0.0,0.0,-0.122,0.0,N/A
2198.431894284,-0.114,0.062,0.993,0.0,0.0,-0.122,0.0,N/A
2198.442036576,-0.114,0.062,0.993,0.0,0.0,-0.122,0.0,N/A
2198.452263742,-0.114,0.062,0.993,0.0,0.0,-0.122,0.0,N/A
2198.462458825,-0.114,0.062,0.993,0.0,0.0,-0.122,0.0,N/A
2198.472686574,-0.114,0.062,0.993,0.0,0.0,-0.122,0.0,N/A
2198.48290499,-0.114,0.062,0.993,0.0,0.0,-0.122,0.0,N/A
2198.493115823,-0.114,0.062,0.993,0.0,0.0,-0.122,0.0,N/A
2198.503343281,-0.114,0.063,0.993,0.0,0.0,-0.122,0.0,N/A
2198.513565488,-0.114,0.063,0.993,0.0,0.0,-0.122,0.0,N/A
2198.523944319,-0.114,0.063,0.993,0.0,0.0,-0.122,0.0,N/A
2198.534170027,-0.114,0.062,0.993,0.0,0.0,-0.122,0.0,N/A
2198.544375026,-0.114,0.063,0.993,0.0,0.0,-0.122,0.0,N/A
2198.554594317,-0.114,0.062,0.993,0.0,0.0,-0.122,0.0,N/A
2198.564888857,-0.114,0.063,0.993,0.0,0.0,-0.122,0.0,N/A
2198.575072857,-0.114,0.063,0.993,0.0,0.0,-0.122,0.0,N/A
2198.585354272,-0.114,0.062,0.993,0.0,0.0,-0.122,0.0,N/A
2198.595471773,-0.114,0.062,0.993,0.0,0.0,0.0,0.0,N/A
2198.605685522,-0.114,0.063,0.993,0.0,0.0,-0.122,0.0,N/A
2198.615908605,-0.114,0.062,0.993,0.0,0.0,-0.122,0.0,N/A
2198.626154146,-0.114,0.062,0.993,0.0,0.0,-0.122,0.0,N/A
2198.636526268,-0.114,0.062,0.993,0.0,0.0,0.0,0.0,N/A
2198.646736518,-0.114,0.062,0.993,0.0,0.0,-0.122,0.0,N/A
2198.65695085,-0.114,0.062,0.993,0.0,0.0,-0.183,0.0,N/A
2198.667164308,-0.114,0.062,0.993,0.0,0.0,-0.183,0.0,N/A
2198.677401682,-0.114,0.062,0.993,0.0,0.0,-0.183,0.0,N/A
2198.68760114,-0.114,0.062,0.993,0.0,0.0,-0.122,0.0,N/A
2198.697828015,-0.114,0.062,0.993,0.0,0.0,-0.122,0.0,N/A
2198.708035931,-0.114,0.062,0.993,0.0,0.0,-0.122,0.0,N/A
2198.718425261,-0.114,0.062,0.993,0.0,0.0,-0.122,0.0,N/A
2198.728649219,-0.114,0.062,0.993,0.0,0.0,-0.122,0.0,N/A
2198.738908176,-0.114,0.062,0.993,0.0,0.0,-0.122,0.0,N/A
2198.74907001,-0.114,0.062,0.993,0.0,0.0,-0.122,0.0,N/A
2198.759292217,-0.114,0.062,0.993,0.0,0.0,-0.122,0.0,N/A
2198.769558174,-0.114,0.062,0.993,0.0,0.0,-0.122,0.0,N/A
2198.779903464,-0.114,0.062,0.993,0.0,0.0,-0.122,0.0,N/A
2198.790169713,-0.114,0.062,0.993,0.0,0.0,-0.122,0.0,N/A
2198.800206423,-0.114,0.062,0.993,0.0,0.0,-0.122,0.0,N/A
2198.810420755,-0.114,0.062,0.993,0.0,0.0,-0.122,0.0,N/A
2198.820647921,-0.114,0.062,0.993,0.0,0.0,-0.122,0.0,N/A
2198.830849129,-0.114,0.062,0.993,0.0,0.0,-0.122,0.0,N/A
2198.841078628,-0.114,0.062,0.993,0.0,0.0,-0.122,0.0,N/A
2198.85129267,-0.114,0.062,0.993,0.0,0.0,-0.122,0.0,N/A
2198.861683167,-0.114,0.062,0.993,0.0,0.0,-0.122,0.0,N/A
2198.871946499,-0.114,0.061,0.993,0.0,0.0,-0.122,0.0,N/A
2198.882112416,-0.114,0.061,0.993,0.0,0.0,-0.122,0.0,N/A
2198.892316832,-0.114,0.061,0.993,0.0,0.0,-0.122,0.0,N/A
2198.902539039,-0.114,0.061,0.993,0.0,0.0,0.0,0.0,N/A
2198.912751331,-0.114,0.061,0.993,0.0,0.0,-0.122,0.0,N/A
2198.922981121,-0.114,0.061,0.993,0.0,0.0,-0.122,0.0,N/A
2198.933201579,-0.114,0.061,0.993,0.0,0.0,-0.122,0.0,N/A
2198.943411245,-0.114,0.061,0.993,0.0,0.0,-0.122,0.0,N/A
2198.953617995,-0.114,0.061,0.993,0.0,0.0,-0.122,0.0,N/A
2198.963832911,-0.114,0.061,0.993,0.0,0.0,-0.122,0.0,N/A
2198.974075535,-0.114,0.061,0.993,0.0,0.0,-0.122,0.0,N/A
2198.984460782,-0.114,0.061,0.993,0.0,0.0,-0.122,0.0,N/A
2198.994668698,-0.114,0.061,0.993,0.0,0.0,-0.122,0.0,N/A
2199.00487399,-0.114,0.061,0.993,0.0,0.0,-0.122,0.0,N/A
2199.015092697,-0.114,0.061,0.993,0.0,0.0,-0.122,0.0,N/A
2199.025244906,-0.114,0.061,0.993,0.0,0.0,-0.122,0.0,N/A
2199.035366198,-0.114,0.061,0.993,0.0,0.0,-0.122,0.0,N/A
2199.045590156,-0.114,0.061,0.993,0.0,0.0,-0.122,0.0,N/A
2199.055805072,-0.114,0.061,0.993,0.0,0.0,-0.122,0.0,N/A
2199.06600978,-0.114,0.061,0.993,0.0,0.0,-0.122,0.0,N/A
2199.076263195,-0.114,0.061,0.993,0.0,0.0,-0.122,0.0,N/A
2199.086448362,-0.114,0.061,0.993,0.0,0.0,-0.122,0.0,N/A
2199.096669403,-0.114,0.061,0.993,0.0,0.0,-0.122,0.0,N/A
2199.106942943,-0.114,0.061,0.993,0.0,0.0,-0.122,0.0,N/A
2199.117109151,-0.114,0.061,0.993,0.0,0.0,-0.122,0.0,N/A
2199.127767687,-0.114,0.061,0.993,0.0,0.0,-0.122,0.0,N/A
2199.137888688,-0.114,0.061,0.993,0.0,0.0,-0.122,0.0,N/A
2199.148486849,-0.114,0.061,0.993,0.0,0.0,-0.122,0.0,N/A
2199.160580075,-0.114,0.061,0.993,0.0,0.0,-0.122,0.0,N/A
2199.170410871,-0.114,0.061,0.993,0.0,0.0,-0.122,0.0,N/A
2199.180641537,-0.114,0.061,0.993,0.0,0.0,-0.061,0.0,N/A
2199.191006076,-0.114,0.061,0.993,0.0,0.0,-0.061,0.0,N/A
2199.201653112,-0.114,0.061,0.993,0.0,0.0,-0.061,0.0,N/A
2199.211511824,-0.114,0.061,0.993,0.0,0.0,-0.061,0.0,N/A
2199.221770198,-0.114,0.061,0.993,0.0,0.0,-0.061,0.0,N/A
2199.232228069,-0.114,0.061,0.993,0.0,0.0,-0.061,0.0,N/A
2199.242592234,-0.114,0.061,0.993,0.0,0.0,-0.061,0.0,N/A
2199.252649568,-0.114,0.061,0.993,0.0,0.0,-0.061,0.0,N/A
2199.262938275,-0.114,0.061,0.993,0.0,0.0,0.0,0.0,N/A
2199.2731249,-0.114,0.061,0.993,0.0,0.0,-0.122,0.0,N/A
2199.28316336,-0.114,0.061,0.993,0.0,0.0,-0.122,0.0,N/A
2199.293516524,-0.114,0.061,0.993,0.0,0.0,-0.061,0.0,N/A
2199.303727357,-0.114,0.061,0.993,0.0,0.0,-0.061,0.0,N/A
2199.313829108,-0.114,0.061,0.993,0.0,0.0,-0.061,0.0,N/A
2199.324340354,-0.114,0.061,0.993,0.0,0.0,-0.061,0.0,N/A
2199.334579186,-0.114,0.061,0.993,0.0,0.0,-0.061,0.0,N/A
2199.344659937,-0.114,0.061,0.993,0.0,0.0,0.0,0.0,N/A
2199.35500231,-0.114,0.061,0.993,0.0,0.0,-0.061,0.0,N/A
2199.365316975,-0.114,0.061,0.993,0.0,0.0,-0.061,0.0,N/A
2199.37557739,-0.114,0.061,0.993,0.0,0.0,-0.061,0.0,N/A
2199.385709224,-0.114,0.061,0.993,0.0,0.0,-0.061,0.0,N/A
2199.396210553,-0.114,0.061,0.993,0.0,0.0,-0.061,0.0,N/A
2199.406423136,-0.114,0.061,0.993,0.0,0.0,-0.061,0.0,N/A
2199.416596636,-0.114,0.061,0.993,0.0,0.0,-0.061,0.0,N/A
2199.426938426,-0.114,0.061,0.993,0.0,0.0,-0.061,0.0,N/A
2199.437359256,-0.114,0.061,0.993,0.0,0.0,-0.061,0.0,N/A
2199.447301175,-0.114,0.061,0.993,0.0,0.0,-0.061,0.0,N/A
2199.457471759,-0.114,0.061,0.993,0.0,0.0,-0.061,0.0,N/A
2199.467685216,-0.114,0.061,0.993,0.0,0.0,-0.061,0.0,N/A
2199.4778628,-0.114,0.061,0.993,0.0,0.0,-0.061,0.0,N/A
2199.488115923,-0.114,0.061,0.993,0.0,0.0,-0.122,0.0,N/A
2199.498356214,-0.114,0.061,0.993,0.0,0.0,-0.122,0.0,N/A
2199.508719295,-0.114,0.062,0.993,0.0,0.0,-0.122,0.0,N/A
2199.518945003,-0.114,0.062,0.993,0.0,0.0,-0.061,0.0,N/A
2199.529168085,-0.114,0.062,0.993,0.0,0.0,-0.061,0.0,N/A
2199.539387085,-0.114,0.062,0.993,0.0,0.0,-0.061,0.0,N/A
2199.549595584,-0.114,0.062,0.993,0.0,0.0,-0.061,0.0,N/A
2199.559882833,-0.114,0.062,0.993,0.0,0.0,-0.061,0.0,N/A
2199.570034458,-0.114,0.062,0.993,0.0,0.0,-0.061,0.0,N/A
2199.580257832,-0.114,0.062,0.993,0.0,0.0,-0.122,0.0,N/A
2199.590714537,-0.114,0.062,0.993,0.0,0.0,-0.122,0.0,N/A
2199.600936453,-0.114,0.062,0.993,0.0,0.0,-0.122,0.0,N/A
2199.611109953,-0.114,0.062,0.993,0.0,0.0,-0.122,0.0,N/A
2199.621337994,-0.114,0.062,0.993,0.0,0.0,-0.122,0.0,N/A
2199.631612118,-0.114,0.062,0.993,0.0,0.0,0.0,0.0,N/A
2199.641849783,-0.114,0.062,0.993,0.0,0.0,-0.122,0.0,N/A
2199.651986242,-0.114,0.062,0.993,0.0,0.0,-0.122,0.0,N/A
2199.662191242,-0.114,0.062,0.993,0.0,0.0,-0.122,0.0,N/A
2199.672429491,-0.114,0.062,0.993,0.0,0.0,-0.122,0.0,N/A
2199.682586949,-0.114,0.062,0.993,0.0,0.0,-0.122,0.0,N/A
2199.692857865,-0.114,0.062,0.993,0.0,0.0,-0.122,0.0,N/A
2199.703026698,-0.114,0.062,0.993,0.0,0.0,-0.122,0.0,N/A
2199.713341071,-0.114,0.062,0.993,0.0,0.0,-0.122,0.0,N/A
2199.723463238,-0.114,0.062,0.993,0.0,0.0,0.0,0.0,N/A
2199.73392811,-0.114,0.062,0.993,0.0,0.0,-0.122,0.0,N/A
2199.744068943,-0.114,0.062,0.993,0.0,0.0,-0.122,0.0,N/A
2199.754283568,-0.114,0.062,0.993,0.0,0.0,-0.122,0.0,N/A
2199.764594733,-0.114,0.062,0.993,0.0,0.0,0.0,0.0,N/A
2199.774740525,-0.114,0.062,0.993,0.0,0.0,-0.122,0.0,N/A
2199.784965066,-0.114,0.062,0.993,0.0,0.0,-0.122,0.0,N/A
2199.795156065,-0.114,0.062,0.993,0.0,0.0,-0.122,0.0,N/A
2199.805381773,-0.114,0.062,0.993,0.0,0.0,0.0,0.0,N/A
2199.815772853,-0.114,0.062,0.993,0.0,0.0,-0.122,0.0,N/A
2199.825982228,-0.114,0.062,0.993,0.0,0.0,-0.122,0.0,N/A
2199.836195686,-0.114,0.062,0.993,0.0,0.0,-0.122,0.0,N/A
2199.846426352,-0.114,0.062,0.993,0.0,0.0,-0.122,0.0,N/A
2199.856648559,-0.114,0.062,0.993,0.0,0.0,-0.122,0.0,N/A
2199.86689235,-0.114,0.062,0.993,0.0,0.0,-0.122,0.0,N/A
2199.877254848,-0.114,0.062,0.993,0.0,0.0,-0.122,0.0,N/A
2199.887459847,-0.114,0.062,0.993,0.0,0.0,-0.122,0.0,N/A
2199.897666013,-0.114,0.062,0.993,0.0,0.0,-0.122,0.0,N/A
2199.907904262,-0.114,0.062,0.993,0.0,0.0,-0.122,0.0,N/A
2199.918128512,-0.114,0.062,0.993,0.0,0.0,-0.122,0.0,N/A
2199.928392719,-0.114,0.062,0.993,0.0,0.0,-0.122,0.0,N/A
2199.938717009,-0.114,0.062,0.993,0.0,0.0,-0.122,0.0,N/A
2199.948931633,-0.114,0.062,0.993,0.0,0.0,-0.122,0.0,N/A
2199.959149757,-0.114,0.062,0.993,0.0,0.0,-0.122,0.0,N/A
2199.969379548,-0.114,0.062,0.993,0.0,0.0,0.0,0.0,N/A
2199.979770629,-0.114,0.062,0.993,0.0,0.0,-0.122,0.0,N/A
2199.98996717,-0.114,0.062,0.993,0.0,0.0,-0.122,0.0,N/A
2200.000216794,-0.114,0.062,0.993,0.0,0.0,-0.122,0.0,N/A
2200.010419169,-0.114,0.062,0.993,0.0,0.0,-0.122,0.0,N/A
2200.02065771,-0.114,0.062,0.993,0.0,0.0,-0.122,0.0,N/A
2200.030891292,-0.114,0.062,0.993,0.0,0.0,-0.122,0.0,N/A
2200.041255831,-0.114,0.062,0.993,0.0,0.0,-0.122,0.0,N/A
2200.051285833,-0.114,0.062,0.993,0.0,0.0,-0.122,0.0,N/A
2200.061666705,-0.114,0.062,0.993,0.0,0.0,-0.122,0.0,N/A
2200.071970579,-0.114,0.062,0.993,0.0,0.0,-0.122,0.0,N/A
2200.082093913,-0.114,0.062,0.993,0.0,0.0,-0.122,0.0,N/A
2200.092320787,-0.114,0.062,0.993,0.0,0.0,-0.122,0.0,N/A
2200.102549994,-0.114,0.062,0.993,0.0,0.0,-0.122,0.0,N/A
2200.112849784,-0.114,0.062,0.993,0.0,0.0,-0.122,0.0,N/A
2200.123152199,-0.114,0.062,0.993,0.0,0.0,-0.122,0.0,N/A
2200.133367991,-0.114,0.062,0.993,0.0,0.0,-0.122,0.0,N/A
2200.143573865,-0.114,0.061,0.993,0.0,0.0,-0.122,0.0,N/A
2200.153788489,-0.114,0.061,0.993,0.0,0.0,-0.122,0.0,N/A
2200.163971614,-0.114,0.061,0.993,0.0,0.0,-0.122,0.0,N/A
2200.174282488,-0.114,0.061,0.993,0.0,0.0,-0.122,0.0,N/A
2200.18440203,-0.114,0.061,0.993,0.0,0.0,-0.122,0.0,N/A
2200.194699195,-0.114,0.061,0.993,0.0,0.0,-0.122,0.0,N/A
2200.204887861,-0.114,0.061,0.993,0.0,0.0,-0.122,0.0,N/A
2200.215110652,-0.114,0.061,0.993,0.0,0.0,-0.122,0.0,N/A
2200.225502899,-0.114,0.061,0.993,0.0,0.0,-0.122,0.0,N/A
2200.235744065,-0.114,0.061,0.993,0.0,0.0,-0.122,0.0,N/A
2200.245973856,-0.114,0.061,0.993,0.0,0.0,-0.122,0.0,N/A
2200.256146481,-0.114,0.061,0.993,0.0,0.0,-0.122,0.0,N/A
2200.266361397,-0.114,0.061,0.993,0.0,0.0,-0.122,0.0,N/A
2200.276402482,-0.114,0.061,0.993,0.0,0.0,0.0,0.0,N/A
2200.286787438,-0.114,0.061,0.993,0.0,0.0,-0.122,0.0,N/A
2200.297015479,-0.114,0.061,0.993,0.0,0.0,-0.122,0.0,N/A
2200.307221353,-0.114,0.061,0.993,0.0,0.0,-0.122,0.0,N/A
2200.317547101,-0.114,0.061,0.993,0.0,0.0,0.0,0.0,N/A
2200.327663143,-0.114,0.061,0.993,0.0,0.0,-0.122,0.0,N/A
2200.337888559,-0.114,0.061,0.993,0.0,0.0,-0.122,0.0,N/A
2200.348114559,-0.114,0.061,0.993,0.0,0.0,-0.122,0.0,N/A
2200.358340558,-0.114,0.061,0.993,0.0,0.0,-0.122,0.0,N/A
2200.36877043,-0.114,0.061,0.993,0.0,0.0,-0.061,0.0,N/A
2200.37894568,-0.114,0.061,0.993,0.0,0.0,-0.061,0.0,N/A
2200.389156512,-0.114,0.061,0.993,0.0,0.0,-0.061,0.0,N/A
2200.399351595,-0.114,0.061,0.993,0.0,0.0,-0.061,0.0,N/A
2200.409587803,-0.114,0.061,0.993,0.0,0.0,-0.061,0.0,N/A
2200.419807094,-0.114,0.061,0.993,0.0,0.0,-0.061,0.0,N/A
2200.43002201,-0.114,0.061,0.993,0.0,0.0,-0.061,0.0,N/A
2200.440389174,-0.114,0.061,0.993,0.0,0.0,-0.061,0.0,N/A
2200.450624507,-0.114,0.061,0.993,0.0,0.0,-0.061,0.0,N/A
2200.460885214,-0.114,0.061,0.993,0.0,0.0,-0.061,0.0,N/A
2200.471211545,-0.114,0.061,0.993,0.0,0.0,-0.061,0.0,N/A
2200.481433461,-0.114,0.061,0.993,0.0,0.0,-0.061,0.0,N/A
2200.491648086,-0.114,0.061,0.993,0.0,0.0,-0.061,0.0,N/A
2200.501891293,-0.114,0.061,0.993,0.0,0.0,-0.061,0.0,N/A
2200.512082584,-0.114,0.061,0.993,0.0,0.0,-0.061,0.0,N/A
2200.522305375,-0.114,0.061,0.993,0.0,0.0,-0.061,0.0,N/A
2200.53252525,-0.114,0.061,0.993,0.0,0.0,-0.061,0.0,N/A
2200.542905539,-0.114,0.061,0.993,0.0,0.0,-0.061,0.0,N/A
2200.55314058,-0.114,0.061,0.993,0.0,0.0,-0.061,0.0,N/A
2200.563411203,-0.114,0.061,0.993,0.0,0.0,-0.061,0.0,N/A
2200.573554662,-0.114,0.061,0.993,0.0,0.0,-0.061,0.0,N/A
2200.583771036,-0.114,0.061,0.993,0.0,0.0,-0.061,0.0,N/A
2200.594007244,-0.114,0.061,0.993,0.0,0.0,-0.061,0.0,N/A
2200.604206119,-0.114,0.061,0.993,0.0,0.0,-0.061,0.0,N/A
2200.614489867,-0.114,0.061,0.993,0.0,0.0,0.0,0.0,N/A
2200.624695158,-0.114,0.061,0.993,0.0,0.0,-0.061,0.0,N/A
2200.634921158,-0.114,0.061,0.993,0.0,0.0,-0.061,0.0,N/A
2200.64512324,-0.114,0.062,0.993,0.0,0.0,-0.061,0.0,N/A
2200.655396198,-0.114,0.062,0.993,0.0,0.0,-0.061,0.0,N/A
2200.665590406,-0.114,0.062,0.993,0.0,0.0,0.0,0.0,N/A
2200.675816113,-0.114,0.062,0.993,0.0,0.0,-0.061,0.0,N/A
2200.686000988,-0.114,0.062,0.993,0.0,0.0,-0.061,0.0,N/A
2200.696233112,-0.114,0.062,0.993,0.0,0.0,-0.061,0.0,N/A
2200.706435195,-0.114,0.062,0.993,0.0,0.0,-0.061,0.0,N/A
2200.716492321,-0.114,0.062,0.993,0.0,0.0,-0.061,0.0,N/A
2200.726700238,-0.114,0.062,0.993,0.0,0.0,-0.122,0.0,N/A
2200.737095401,-0.114,0.062,0.993,0.0,0.0,-0.122,0.0,N/A
2200.747317609,-0.114,0.062,0.993,0.0,0.0,-0.122,0.0,N/A
2200.757534567,-0.114,0.062,0.993,0.0,0.0,-0.061,0.0,N/A
2200.767920689,-0.114,0.062,0.993,0.0,0.0,-0.061,0.0,N/A
2200.778128897,-0.114,0.062,0.993,0.0,0.0,-0.061,0.0,N/A
2200.788414687,-0.114,0.062,0.993,0.0,0.0,-0.122,0.0,N/A
2200.798573896,-0.114,0.062,0.993,0.0,0.0,-0.122,0.0,N/A
2200.808802228,-0.114,0.062,0.993,0.0,0.0,-0.122,0.0,N/A
2200.819008686,-0.114,0.062,0.993,0.0,0.0,-0.122,0.0,N/A
2200.82923556,-0.114,0.062,0.993,0.0,0.0,-0.122,0.0,N/A
2200.839446685,-0.114,0.062,0.993,0.0,0.0,-0.122,0.0,N/A
2200.849676476,-0.114,0.062,0.993,0.0,0.0,-0.122,0.0,N/A
2200.859972766,-0.114,0.062,0.993,0.0,0.0,-0.122,0.0,N/A
2200.869942685,-0.114,0.062,0.993,0.0,0.0,-0.122,0.0,N/A
2200.880178017,-0.114,0.062,0.993,0.0,0.0,-0.122,0.0,N/A
2200.890553056,-0.114,0.062,0.993,0.0,0.0,-0.122,0.0,N/A
2200.900770597,-0.113,0.062,0.993,0.0,0.0,-0.122,0.0,N/A
2200.911033346,-0.113,0.062,0.993,0.0,0.0,-0.122,0.0,N/A
2200.921219388,-0.113,0.062,0.993,0.0,0.0,-0.122,0.0,N/A
2200.931427304,-0.113,0.062,0.993,0.0,0.0,-0.122,0.0,N/A
2200.941658845,-0.113,0.062,0.993,0.0,0.0,-0.122,0.0,N/A
2200.95191926,-0.113,0.062,0.993,0.0,0.0,-0.122,0.0,N/A
2200.96208226,-0.113,0.062,0.993,0.0,0.0,-0.122,0.0,N/A
2200.972331009,-0.113,0.062,0.993,0.0,0.0,-0.122,0.0,N/A
2200.9825503,-0.113,0.062,0.993,0.0,0.0,-0.122,0.0,N/A
2200.992767841,-0.113,0.062,0.993,0.0,0.0,-0.122,0.0,N/A
2201.002908967,-0.113,0.062,0.993,0.0,0.0,-0.122,0.0,N/A
2201.013205257,-0.113,0.062,0.993,0.0,0.0,-0.122,0.0,N/A
2201.02322855,-0.113,0.062,0.993,0.0,0.0,-0.122,0.0,N/A
2201.033446966,-0.113,0.062,0.993,0.0,0.0,0.0,0.0,N/A
2201.043677049,-0.113,0.062,0.993,0.0,0.0,-0.122,0.0,N/A
2201.054047421,-0.113,0.062,0.993,0.0,0.0,-0.122,0.0,N/A
2201.064237254,-0.113,0.062,0.993,0.0,0.0,-0.122,0.0,N/A
2201.074396171,-0.113,0.062,0.993,0.0,0.0,-0.122,0.0,N/A
2201.08467817,-0.113,0.062,0.993,0.0,0.0,-0.122,0.0,N/A
2201.094948793,-0.113,0.062,0.993,0.0,0.0,-0.122,0.0,N/A
2201.105163418,-0.113,0.062,0.993,0.0,0.0,-0.122,0.0,N/A
2201.115363751,-0.113,0.062,0.993,0.0,0.0,-0.122,0.0,N/A
2201.125578375,-0.113,0.062,0.993,0.0,0.0,-0.122,0.0,N/A
2201.135811958,-0.113,0.062,0.993,0.0,0.0,-0.122,0.0,N/A
2201.146043207,-0.113,0.062,0.993,0.0,0.0,-0.122,0.0,N/A
2201.156422621,-0.114,0.062,0.993,0.0,0.0,-0.122,0.0,N/A
2201.166459039,-0.114,0.062,0.993,0.0,0.0,0.0,0.0,N/A
2201.17666608,-0.114,0.062,0.993,0.0,0.0,-0.122,0.0,N/A
2201.186918913,-0.114,0.062,0.993,0.0,0.0,-0.122,0.0,N/A
2201.197109329,-0.114,0.062,0.993,0.0,0.0,-0.122,0.0,N/A
2201.207525493,-0.114,0.062,0.993,0.0,0.0,-0.122,0.0,N/A
2201.217721159,-0.114,0.062,0.993,0.0,0.0,-0.122,0.0,N/A
2201.227931409,-0.114,0.062,0.993,0.0,0.0,-0.122,0.0,N/A
2201.238157408,-0.114,0.062,0.993,0.0,0.0,-0.122,0.0,N/A
2201.248451365,-0.114,0.062,0.993,0.0,0.0,-0.122,0.0,N/A
2201.25858899,-0.114,0.062,0.993,0.0,0.0,-0.122,0.0,N/A
2201.268982987,-0.114,0.062,0.993,0.0,0.0,-0.122,0.0,N/A
2201.27921132,-0.114,0.062,0.993,0.0,0.0,-0.122,0.0,N/A
2201.289427111,-0.114,0.062,0.993,0.0,0.0,-0.122,0.0,N/A
2201.29963911,-0.114,0.062,0.993,0.0,0.0,-0.122,0.0,N/A
2201.30967757,-0.114,0.062,0.993,0.0,0.0,-0.122,0.0,N/A
2201.319915236,-0.114,0.062,0.993,0.0,0.0,-0.122,0.0,N/A
2201.330125777,-0.114,0.062,0.993,0.0,0.0,-0.122,0.0,N/A
2201.340340985,-0.114,0.062,0.993,0.0,0.0,-0.122,0.0,N/A
2201.350553568,-0.114,0.062,0.993,0.0,0.0,0.0,0.0,N/A
2201.360788608,-0.114,0.062,0.993,0.0,0.0,-0.122,0.0,N/A
2201.371053107,-0.114,0.062,0.993,0.0,0.0,-0.122,0.0,N/A
2201.381217274,-0.114,0.062,0.993,0.0,0.0,-0.122,0.0,N/A
2201.39159698,-0.114,0.062,0.993,0.0,0.0,0.0,0.0,N/A
2201.401824146,-0.114,0.062,0.993,0.0,0.0,-0.122,0.0,N/A
2201.41204402,-0.114,0.061,0.993,0.0,0.0,-0.122,0.0,N/A
2201.422278769,-0.114,0.061,0.993,0.0,0.0,-0.122,0.0,N/A
2201.432481435,-0.114,0.061,0.993,0.0,0.0,-0.122,0.0,N/A
2201.44254352,-0.114,0.061,0.993,0.0,0.0,-0.122,0.0,N/A
2201.452748811,-0.114,0.061,0.993,0.0,0.0,-0.122,0.0,N/A
2201.462968686,-0.114,0.061,0.993,0.0,0.0,-0.122,0.0,N/A
2201.473356266,-0.114,0.061,0.993,0.0,0.0,-0.122,0.0,N/A
2201.483655765,-0.114,0.061,0.993,0.0,0.0,-0.122,0.0,N/A
2201.493796307,-0.114,0.061,0.993,0.0,0.0,-0.122,0.0,N/A
2201.504024056,-0.114,0.061,0.993,0.0,0.0,-0.122,0.0,N/A
2201.522520745,-0.114,0.061,0.993,0.0,0.0,-0.122,0.0,N/A
2201.53228475,-0.115,0.061,0.993,0.0,0.0,-0.122,0.0,N/A
2201.542946202,-0.115,0.061,0.993,0.0,0.0,0.0,0.0,N/A
2201.553148577,-0.115,0.061,0.993,0.0,0.0,-0.061,0.0,N/A
2201.563261994,-0.115,0.061,0.993,0.0,0.0,-0.061,0.0,N/A
2201.573460869,-0.115,0.061,0.993,0.0,0.0,-0.122,0.0,N/A
2201.583679285,-0.115,0.061,0.993,0.0,0.0,-0.122,0.0,N/A
2201.593893326,-0.115,0.061,0.993,0.0,0.0,-0.122,0.0,N/A
2201.604130408,-0.115,0.061,0.993,0.0,0.0,-0.061,0.0,N/A
2201.614325491,-0.115,0.061,0.993,0.0,0.0,-0.061,0.0,N/A
2201.624585324,-0.115,0.061,0.993,0.0,0.0,0.0,0.0,N/A
2201.63480024,-0.115,0.061,0.993,0.0,0.0,-0.061,0.0,N/A
2201.64506328,-0.115,0.061,0.993,0.0,0.0,-0.122,0.0,N/A
2201.65523678,-0.115,0.061,0.993,0.0,0.0,-0.061,0.0,N/A
2201.665465404,-0.115,0.061,0.993,0.0,0.0,0.0,0.0,N/A
2201.67567507,-0.115,0.061,0.993,0.0,0.0,-0.122,0.0,N/A
2201.68586257,-0.115,0.061,0.993,0.0,0.0,-0.122,0.0,N/A
2201.696119194,-0.115,0.061,0.993,0.0,0.0,-0.122,0.0,N/A
2201.70633061,-0.115,0.061,0.993,0.0,0.0,-0.061,0.0,N/A
2201.71654961,-0.115,0.061,0.993,0.0,0.0,0.0,0.0,N/A
2201.726785817,-0.115,0.061,0.993,0.0,0.0,-0.061,0.0,N/A
2201.73753331,-0.115,0.061,0.993,0.0,0.0,-0.061,0.0,N/A
2201.748169679,-0.115,0.061,0.993,0.0,0.0,0.0,0.0,N/A
2201.757758978,-0.115,0.061,0.993,0.0,0.0,-0.061,0.0,N/A
2201.767809979,-0.115,0.061,0.993,0.0,0.0,-0.061,0.0,N/A
2201.778056103,-0.115,0.061,0.993,0.0,0.0,-0.061,0.0,N/A
2201.788426768,-0.114,0.061,0.993,0.0,0.0,-0.061,0.0,N/A
2201.798647809,-0.114,0.061,0.993,0.0,0.0,-0.061,0.0,N/A
2201.80869706,-0.114,0.061,0.993,0.0,0.0,-0.061,0.0,N/A
2201.818904101,-0.114,0.061,0.993,0.0,0.0,-0.061,0.0,N/A
2201.829135642,-0.114,0.061,0.993,0.0,0.0,-0.061,0.0,N/A
2201.839357266,-0.114,0.061,0.993,0.0,0.0,-0.061,0.0,N/A
2201.849569849,-0.114,0.061,0.993,0.0,0.0,-0.061,0.0,N/A
2201.859790015,-0.114,0.061,0.993,0.0,0.0,-0.061,0.0,N/A
2201.870020681,-0.114,0.061,0.993,0.0,0.0,-0.061,0.0,N/A
2201.880408845,-0.114,0.061,0.993,0.0,0.0,-0.061,0.0,N/A
2201.890617053,-0.114,0.061,0.993,0.0,0.0,-0.061,0.0,N/A
2201.900848594,-0.114,0.061,0.993,0.0,0.0,-0.061,0.0,N/A
2201.911043968,-0.114,0.061,0.993,0.0,0.0,-0.061,0.0,N/A
2201.921276676,-0.114,0.061,0.993,0.0,0.0,-0.061,0.0,N/A
2201.931526008,-0.114,0.061,0.993,0.0,0.0,0.0,0.0,N/A
2201.941719925,-0.114,0.061,0.993,0.0,0.0,-0.122,0.0,N/A
2201.951921424,-0.114,0.061,0.993,0.0,0.0,-0.122,0.0,N/A
2201.962144798,-0.114,0.061,0.993,0.0,0.0,-0.122,0.0,N/A
2201.972364381,-0.114,0.061,0.993,0.0,0.0,-0.122,0.0,N/A
2201.982581631,-0.114,0.061,0.993,0.0,0.0,0.0,0.0,N/A
2201.992831255,-0.114,0.061,0.993,0.0,0.0,-0.061,0.0,N/A
2202.003383041,-0.114,0.061,0.993,0.0,0.0,-0.061,0.0,N/A
2202.013905079,-0.114,0.061,0.993,0.0,0.0,-0.061,0.0,N/A
2202.024031329,-0.114,0.061,0.993,0.0,0.0,-0.122,0.0,N/A
2202.034082622,-0.114,0.061,0.993,0.0,0.0,-0.122,0.0,N/A
2202.044739991,-0.114,0.062,0.993,0.0,0.0,-0.122,0.0,N/A
2202.055138072,-0.114,0.062,0.993,0.0,0.0,-0.122,0.0,N/A
2202.065585735,-0.114,0.062,0.993,0.0,0.0,-0.122,0.0,N/A
2202.075455614,-0.114,0.062,0.993,0.0,0.0,-0.122,0.0,N/A
2202.085780778,-0.114,0.062,0.993,0.0,0.0,-0.122,0.0,N/A
2202.09596207,-0.114,0.062,0.993,0.0,0.0,-0.122,0.0,N/A
2202.106335526,-0.114,0.062,0.993,0.0,0.0,-0.122,0.0,N/A
2202.11642736,-0.114,0.062,0.993,0.0,0.0,-0.122,0.0,N/A
2202.126500528,-0.114,0.062,0.993,0.0,0.0,-0.122,0.0,N/A
2202.137009149,-0.114,0.062,0.993,0.0,0.0,-0.122,0.0,N/A
2202.147204815,-0.114,0.062,0.993,0.0,0.0,-0.122,0.0,N/A
2202.157461439,-0.114,0.062,0.993,0.0,0.0,-0.122,0.0,N/A
2202.167755979,-0.113,0.062,0.993,0.0,0.0,-0.122,0.0,N/A
2202.188490891,-0.113,0.062,0.993,0.0,0.0,-0.122,0.0,N/A
2202.200729282,-0.113,0.062,0.993,0.0,0.0,-0.122,0.0,N/A
2202.210810241,-0.113,0.062,0.993,0.0,0.0,0.0,0.0,N/A
2202.221189947,-0.113,0.062,0.993,0.0,0.0,-0.122,0.0,N/A
2202.231353239,-0.113,0.062,0.993,0.0,0.0,-0.122,0.0,N/A
2202.24157603,-0.113,0.062,0.993,0.0,0.0,-0.122,0.0,N/A
2202.251939986,-0.113,0.062,0.993,0.0,0.0,-0.122,0.0,N/A
2202.262229276,-0.113,0.062,0.993,0.0,0.0,-0.122,0.0,N/A
2202.27229136,-0.113,0.062,0.993,0.0,0.0,-0.122,0.0,N/A
2202.282692149,-0.113,0.062,0.993,0.0,0.0,-0.122,0.0,N/A
2202.293148104,-0.113,0.062,0.993,0.0,0.0,-0.122,0.0,N/A
2202.303265896,-0.113,0.062,0.993,0.0,0.0,-0.122,0.0,N/A
2202.313628977,-0.113,0.062,0.993,0.0,0.0,-0.122,0.0,N/A
2202.324055641,-0.113,0.062,0.993,0.0,0.0,-0.122,0.0,N/A
2202.334272307,-0.113,0.062,0.993,0.0,0.0,-0.122,0.0,N/A
2202.344063436,-0.113,0.062,0.993,0.0,0.0,-0.122,0.0,N/A
2202.354618723,-0.113,0.062,0.993,0.0,0.0,-0.122,0.0,N/A
2202.364926805,-0.113,0.062,0.993,0.0,0.0,0.0,0.0,N/A
2202.376964615,-0.113,0.062,0.993,0.0,0.0,-0.122,0.0,N/A
2202.387345696,-0.113,0.062,0.993,0.0,0.0,-0.122,0.0,N/A
2202.397843525,-0.113,0.062,0.993,0.0,0.0,-0.122,0.0,N/A
2202.407581864,-0.113,0.062,0.993,0.0,0.0,-0.122,0.0,N/A
2202.419888296,-0.113,0.062,0.993,0.0,0.0,-0.122,0.0,N/A
2202.430040213,-0.113,0.062,0.993,0.0,0.0,-0.122,0.0,N/A
2202.440257754,-0.113,0.062,0.993,0.0,0.0,-0.122,0.0,N/A
2202.450472378,-0.113,0.062,0.993,0.0,0.0,0.0,0.0,N/A
2202.460859084,-0.113,0.062,0.993,0.0,0.0,-0.122,0.0,N/A
2202.470902794,-0.113,0.062,0.993,0.0,0.0,-0.122,0.0,N/A
2202.481318082,-0.113,0.062,0.993,0.0,0.0,-0.122,0.0,N/A
2202.491509374,-0.113,0.062,0.993,0.0,0.0,-0.122,0.0,N/A
2202.50193312,-0.113,0.062,0.993,0.0,0.0,-0.122,0.0,N/A
2202.51215562,-0.113,0.062,0.993,0.0,0.0,-0.122,0.0,N/A
2202.522362953,-0.113,0.062,0.993,0.0,0.0,-0.122,0.0,N/A
2202.532576994,-0.113,0.062,0.993,0.0,0.0,-0.122,0.0,N/A
2202.542793368,-0.113,0.062,0.993,0.0,0.0,-0.122,0.0,N/A
2202.55304795,-0.114,0.062,0.993,0.0,0.0,-0.122,0.0,N/A
2202.563222325,-0.114,0.062,0.993,0.0,0.0,-0.122,0.0,N/A
2202.573433741,-0.114,0.062,0.993,0.0,0.0,-0.122,0.0,N/A
2202.583647491,-0.114,0.062,0.993,0.0,0.0,-0.122,0.0,N/A
2202.593897115,-0.114,0.062,0.993,0.0,0.0,-0.122,0.0,N/A
2202.604098323,-0.114,0.062,0.993,0.0,0.0,-0.122,0.0,N/A
2202.61448357,-0.114,0.062,0.993,0.0,0.0,-0.122,0.0,N/A
2202.624775777,-0.114,0.062,0.993,0.0,0.0,-0.122,0.0,N/A
2202.63494636,-0.114,0.062,0.993,0.0,0.0,-0.122,0.0,N/A
2202.645156318,-0.114,0.062,0.993,0.0,0.0,-0.122,0.0,N/A
2202.65530736,-0.114,0.062,0.993,0.0,0.0,-0.122,0.0,N/A
2202.665526651,-0.114,0.062,0.993,0.0,0.0,-0.122,0.0,N/A
2202.675904898,-0.114,0.062,0.993,0.0,0.0,-0.122,0.0,N/A
2202.686116314,-0.114,0.062,0.993,0.0,0.0,-0.122,0.0,N/A
2202.696357772,-0.114,0.062,0.993,0.0,0.0,-0.122,0.0,N/A
2202.706554021,-0.114,0.062,0.993,0.0,0.0,-0.122,0.0,N/A
2202.716794896,-0.114,0.062,0.993,0.0,0.0,-0.122,0.0,N/A
2202.726982687,-0.114,0.062,0.993,0.0,0.0,-0.122,0.0,N/A
2202.737220061,-0.114,0.062,0.993,0.0,0.0,-0.122,0.0,N/A
2202.747615517,-0.114,0.062,0.993,0.0,0.0,0.0,0.0,N/A
2202.757860766,-0.114,0.062,0.993,0.0,0.0,-0.122,0.0,N/A
2202.768041557,-0.114,0.062,0.993,0.0,0.0,-0.122,0.0,N/A
2202.778252973,-0.114,0.062,0.993,0.0,0.0,-0.122,0.0,N/A
2202.788496181,-0.114,0.062,0.993,0.0,0.0,0.0,0.0,N/A
2202.798902136,-0.114,0.062,0.993,0.0,0.0,-0.122,0.0,N/A
2202.809112094,-0.115,0.062,0.993,0.0,0.0,-0.122,0.0,N/A
2202.819341301,-0.115,0.062,0.993,0.0,0.0,-0.122,0.0,N/A
2202.829549509,-0.115,0.062,0.993,0.0,0.0,0.0,0.0,N/A
2202.839755092,-0.115,0.062,0.993,0.0,0.0,-0.122,0.0,N/A
2202.849966217,-0.115,0.062,0.993,0.0,0.0,-0.122,0.0,N/A
2202.860207674,-0.115,0.062,0.993,0.0,0.0,-0.122,0.0,N/A
2202.870413257,-0.115,0.062,0.993,0.0,0.0,-0.122,0.0,N/A
2202.880635465,-0.115,0.062,0.993,0.0,0.0,-0.122,0.0,N/A
2202.890809548,-0.115,0.062,0.993,0.0,0.0,-0.061,0.0,N/A
2202.900964965,-0.115,0.062,0.993,0.0,0.0,-0.061,0.0,N/A
2202.911416419,-0.115,0.062,0.993,0.0,0.0,-0.061,0.0,N/A
2202.921630752,-0.115,0.062,0.993,0.0,0.0,-0.061,0.0,N/A
2202.931857043,-0.115,0.061,0.993,0.0,0.0,-0.061,0.0,N/A
2202.942076043,-0.115,0.061,0.993,0.0,0.0,-0.061,0.0,N/A
2202.952284834,-0.115,0.061,0.993,0.0,0.0,-0.061,0.0,N/A
2202.962506458,-0.115,0.061,0.993,0.0,0.0,0.0,0.0,N/A
2202.972729249,-0.115,0.061,0.993,0.0,0.0,-0.061,0.0,N/A
2202.982963706,-0.115,0.061,0.993,0.0,0.0,-0.061,0.0,N/A
2202.993179498,-0.115,0.061,0.993,0.0,0.0,-0.061,0.0,N/A
2203.003380122,-0.115,0.061,0.993,0.0,0.0,-0.061,0.0,N/A
2203.013628288,-0.115,0.061,0.993,0.0,0.0,-0.061,0.0,N/A
2203.023980577,-0.115,0.061,0.993,0.0,0.0,-0.061,0.0,N/A
2203.034174785,-0.115,0.061,0.993,0.0,0.0,-0.061,0.0,N/A
2203.044431117,-0.115,0.061,0.993,0.0,0.0,-0.061,0.0,N/A
2203.054642242,-0.115,0.061,0.993,0.0,0.0,-0.061,0.0,N/A
2203.064859491,-0.115,0.061,0.993,0.0,0.0,-0.061,0.0,N/A
2203.075238905,-0.115,0.061,0.993,0.0,0.0,-0.061,0.0,N/A
2203.085475988,-0.115,0.061,0.993,0.0,0.0,-0.061,0.0,N/A
2203.095767028,-0.115,0.061,0.993,0.0,0.0,-0.061,0.0,N/A
2203.105904653,-0.115,0.061,0.993,0.0,0.0,-0.061,0.0,N/A
2203.116122194,-0.115,0.061,0.993,0.0,0.0,-0.061,0.0,N/A
2203.126364235,-0.115,0.061,0.993,0.0,0.0,-0.061,0.0,N/A
2203.136757066,-0.115,0.061,0.993,0.0,0.0,-0.061,0.0,N/A
2203.147019815,-0.115,0.061,0.993,0.0,0.0,-0.061,0.0,N/A
2203.157148982,-0.114,0.061,0.993,0.0,0.0,-0.061,0.0,N/A
2203.167364481,-0.115,0.061,0.993,0.0,0.0,-0.061,0.0,N/A
2203.177588147,-0.115,0.061,0.993,0.0,0.0,-0.061,0.0,N/A
2203.187940145,-0.114,0.061,0.993,0.0,0.0,-0.061,0.0,N/A
2203.198022062,-0.114,0.061,0.993,0.0,0.0,-0.061,0.0,N/A
2203.208235812,-0.114,0.061,0.993,0.0,0.0,-0.061,0.0,N/A
2203.218628642,-0.114,0.061,0.993,0.0,0.0,-0.061,0.0,N/A
2203.228849392,-0.114,0.061,0.993,0.0,0.0,-0.061,0.0,N/A
2203.239085891,-0.114,0.061,0.993,0.0,0.0,-0.061,0.0,N/A
2203.249291474,-0.114,0.061,0.993,0.0,0.0,-0.061,0.0,N/A
2203.25950114,-0.114,0.061,0.993,0.0,0.0,-0.061,0.0,N/A
2203.269883762,-0.114,0.061,0.993,0.0,0.0,-0.061,0.0,N/A
2203.280106262,-0.114,0.061,0.993,0.0,0.0,-0.061,0.0,N/A
2203.290289386,-0.114,0.061,0.993,0.0,0.0,-0.061,0.0,N/A
2203.300547177,-0.114,0.061,0.993,0.0,0.0,0.0,0.0,N/A
2203.310773176,-0.114,0.062,0.993,0.0,0.0,-0.061,0.0,N/A
2203.321079383,-0.114,0.062,0.993,0.0,0.0,-0.061,0.0,N/A
2203.331217008,-0.114,0.062,0.993,0.0,0.0,-0.061,0.0,N/A
2203.341434258,-0.114,0.062,0.993,0.0,0.0,0.0,0.0,N/A
2203.351816005,-0.114,0.062,0.993,0.0,0.0,-0.061,0.0,N/A
2203.362071171,-0.114,0.062,0.993,0.0,0.0,-0.122,0.0,N/A
2203.372279087,-0.114,0.062,0.993,0.0,0.0,-0.122,0.0,N/A
2203.382503628,-0.114,0.062,0.993,0.0,0.0,-0.122,0.0,N/A
2203.392713877,-0.114,0.062,0.993,0.0,0.0,-0.122,0.0,N/A
2203.402962043,-0.114,0.062,0.993,0.0,0.0,-0.122,0.0,N/A
2203.413318707,-0.114,0.062,0.993,0.0,0.0,-0.122,0.0,N/A
2203.423540332,-0.114,0.062,0.993,0.0,0.0,-0.122,0.0,N/A
2203.433764581,-0.114,0.062,0.993,0.0,0.0,-0.122,0.0,N/A
2203.443980955,-0.113,0.062,0.993,0.0,0.0,-0.122,0.0,N/A
2203.454190621,-0.113,0.062,0.993,0.0,0.0,-0.122,0.0,N/A
2203.464412537,-0.113,0.062,0.993,0.0,0.0,-0.122,0.0,N/A
2203.474658661,-0.113,0.062,0.993,0.0,0.0,-0.122,0.0,N/A
2203.484966326,-0.113,0.062,0.993,0.0,0.0,-0.122,0.0,N/A
2203.495124951,-0.113,0.062,0.993,0.0,0.0,-0.122,0.0,N/A
2203.505467908,-0.113,0.062,0.993,0.0,0.0,-0.122,0.0,N/A
2203.515529409,-0.113,0.062,0.993,0.0,0.0,-0.122,0.0,N/A
2203.525730325,-0.113,0.062,0.993,0.0,0.0,-0.122,0.0,N/A
2203.535956908,-0.113,0.062,0.993,0.0,0.0,-0.122,0.0,N/A
2203.546173574,-0.113,0.062,0.993,0.0,0.0,-0.122,0.0,N/A
2203.556431073,-0.113,0.062,0.993,0.0,0.0,-0.122,0.0,N/A
2203.566683322,-0.113,0.062,0.993,0.0,0.0,0.0,0.0,N/A
2203.576650907,-0.113,0.062,0.993,0.0,0.0,-0.122,0.0,N/A
2203.586884198,-0.113,0.062,0.993,0.0,0.0,-0.122,0.0,N/A
2203.597283445,-0.113,0.062,0.993,0.0,0.0,-0.122,0.0,N/A
2203.607493403,-0.113,0.062,0.993,0.0,0.0,-0.122,0.0,N/A
2203.617549071,-0.113,0.062,0.993,0.0,0.0,-0.122,0.0,N/A
2203.627763987,-0.113,0.062,0.993,0.0,0.0,-0.122,0.0,N/A
2203.637977445,-0.113,0.062,0.993,0.0,0.0,-0.122,0.0,N/A
2203.64813082,-0.113,0.062,0.993,0.0,0.0,-0.183,0.0,N/A
2203.658369944,-0.113,0.062,0.993,0.0,0.0,-0.183,0.0,N/A
2203.668603527,-0.113,0.062,0.993,0.0,0.0,-0.122,0.0,N/A
2203.678982066,-0.113,0.062,0.993,0.0,0.0,-0.122,0.0,N/A
2203.689037151,-0.113,0.062,0.993,0.0,0.0,-0.122,0.0,N/A
2203.69925965,-0.113,0.062,0.993,0.0,0.0,-0.122,0.0,N/A
2203.709634106,-0.113,0.062,0.993,0.0,0.0,-0.122,0.0,N/A
2203.719933313,-0.113,0.062,0.993,0.0,0.0,-0.122,0.0,N/A
2203.730095146,-0.113,0.062,0.993,0.0,0.0,-0.122,0.0,N/A
2203.740481852,-0.113,0.062,0.993,0.0,0.0,-0.122,0.0,N/A
2203.750690351,-0.113,0.062,0.993,0.0,0.0,-0.183,0.0,N/A
2203.760911684,-0.113,0.062,0.993,0.0,0.0,-0.183,0.0,N/A
2203.771127183,-0.113,0.062,0.993,0.0,0.0,-0.183,0.0,N/A
2203.781349391,-0.113,0.062,0.993,0.0,0.0,-0.183,0.0,N/A
2203.791643056,-0.113,0.062,0.993,0.0,0.0,-0.122,0.0,N/A
2203.80188043,-0.113,0.062,0.993,0.0,0.0,-0.122,0.0,N/A
2203.812031472,-0.113,0.062,0.993,0.0,0.0,-0.122,0.0,N/A
2203.822434219,-0.114,0.062,0.993,0.0,0.0,-0.122,0.0,N/A
2203.83264826,-0.114,0.062,0.993,0.0,0.0,0.0,0.0,N/A
2203.842880676,-0.114,0.062,0.993,0.0,0.0,-0.183,0.0,N/A
2203.852919719,-0.114,0.062,0.993,0.0,0.0,-0.183,0.0,N/A
2203.863136677,-0.114,0.062,0.993,0.0,0.0,-0.183,0.0,N/A
2203.873372009,-0.114,0.062,0.993,0.0,0.0,-0.183,0.0,N/A
2203.883563592,-0.114,0.062,0.993,0.0,0.0,-0.183,0.0,N/A
2203.893799508,-0.114,0.062,0.993,0.0,0.0,-0.183,0.0,N/A
2203.904040966,-0.114,0.062,0.993,0.0,0.0,-0.183,0.0,N/A
2203.91425734,-0.114,0.062,0.993,0.0,0.0,-0.122,0.0,N/A
2203.92446409,-0.114,0.062,0.993,0.0,0.0,-0.122,0.0,N/A
2203.934718672,-0.114,0.062,0.993,0.0,0.0,-0.122,0.0,N/A
2203.944891005,-0.114,0.062,0.993,0.0,0.0,-0.122,0.0,N/A
2203.955148212,-0.114,0.062,0.993,0.0,0.0,-0.122,0.0,N/A
2203.965362253,-0.114,0.062,0.993,0.0,0.0,-0.122,0.0,N/A
2203.975528753,-0.114,0.062,0.993,0.0,0.0,-0.122,0.0,N/A
2203.985914001,-0.114,0.062,0.993,0.0,0.0,-0.122,0.0,N/A
2203.996121625,-0.114,0.062,0.993,0.0,0.0,-0.122,0.0,N/A
2204.006353166,-0.114,0.062,0.993,0.0,0.0,-0.122,0.0,N/A
2204.016561082,-0.114,0.062,0.993,0.0,0.0,0.0,0.0,N/A
2204.026841331,-0.114,0.062,0.993,0.0,0.0,-0.122,0.0,N/A
2204.037001123,-0.114,0.062,0.993,0.0,0.0,-0.122,0.0,N/A
2204.047223914,-0.114,0.062,0.993,0.0,0.0,-0.122,0.0,N/A
2204.057454288,-0.114,0.062,0.993,0.0,0.0,0.0,0.0,N/A
2204.067845952,-0.114,0.062,0.993,0.0,0.0,-0.122,0.0,N/A
2204.078059701,-0.115,0.061,0.993,0.0,0.0,-0.122,0.0,N/A
2204.088280159,-0.115,0.061,0.993,0.0,0.0,-0.122,0.0,N/A
2204.098497992,-0.115,0.061,0.993,0.0,0.0,0.0,0.0,N/A
2204.108717866,-0.115,0.061,0.993,0.0,0.0,-0.122,0.0,N/A
2204.119106613,-0.115,0.061,0.993,0.0,0.0,-0.122,0.0,N/A
2204.129169865,-0.115,0.061,0.993,0.122,-0.061,-0.122,0.0,N/A
2204.139550445,-0.115,0.061,0.993,0.122,-0.061,0.0,0.0,N/A
2204.14983886,-0.115,0.061,0.993,0.122,-0.061,-0.122,0.0,N/A
2204.159992819,-0.115,0.061,0.993,0.122,-0.122,-0.122,0.0,N/A
2204.170209777,-0.115,0.061,0.993,0.183,-0.122,-0.122,0.0,N/A
2204.180432859,-0.115,0.061,0.993,0.183,-0.122,0.0,0.0,N/A
2204.190887814,-0.115,0.061,0.993,0.183,-0.122,-0.122,0.0,N/A
2204.20108873,-0.115,0.061,0.993,0.183,-0.122,-0.122,0.0,N/A
2204.211277397,-0.115,0.061,0.993,0.244,-0.122,-0.122,0.0,N/A
2204.221504271,-0.115,0.061,0.993,0.244,-0.183,0.0,0.0,N/A
2204.231722104,-0.115,0.061,0.993,0.244,-0.183,-0.061,0.0,N/A
2204.241890937,-0.115,0.061,0.993,0.244,-0.183,-0.061,0.0,N/A
2204.252197435,-0.115,0.061,0.993,0.244,-0.183,-0.061,0.0,N/A
2204.262416726,-0.115,0.061,0.993,0.305,-0.183,-0.061,0.0,N/A
2204.272663142,-0.115,0.061,0.993,0.305,-0.183,-0.061,0.0,N/A
2204.282920933,-0.115,0.061,0.993,0.305,-0.183,-0.061,0.0,N/A
2204.293078683,-0.115,0.061,0.993,0.305,-0.183,-0.061,0.0,N/A
2204.303290099,-0.115,0.061,0.993,0.305,-0.183,-0.061,0.0,N/A
2204.313510557,-0.115,0.061,0.993,0.305,-0.183,-0.061,0.0,N/A
2204.323743556,-0.115,0.061,0.993,0.305,-0.183,-0.061,0.0,N/A
2204.333942722,-0.115,0.061,0.993,0.366,-0.183,-0.061,0.0,N/A
2204.34416668,-0.115,0.061,0.993,0.366,-0.183,-0.061,0.0,N/A
2204.354380429,-0.115,0.061,0.993,0.366,-0.183,-0.061,0.0,N/A
2204.364611095,-0.115,0.061,0.993,0.366,-0.183,-0.061,0.0,N/A
2204.374905635,-0.115,0.061,0.993,0.366,-0.183,-0.061,0.0,N/A
2204.385038885,-0.115,0.061,0.993,0.366,-0.183,-0.061,0.0,N/A
2204.395294634,-0.115,0.061,0.993,0.366,-0.183,-0.061,0.0,N/A
2204.405732089,-0.115,0.061,0.993,0.366,-0.183,0.0,0.0,N/A
2204.415874965,-0.115,0.061,0.993,0.366,-0.183,-0.061,0.0,N/A
2204.426043798,-0.115,0.061,0.993,0.366,-0.183,-0.061,0.0,N/A
2204.436284089,-0.115,0.061,0.993,0.366,-0.183,-0.061,0.0,N/A
2204.446487047,-0.115,0.061,0.993,0.366,-0.183,-0.061,0.0,N/A
2204.456719171,-0.114,0.061,0.993,0.366,-0.183,-0.061,0.0,N/A
2204.466956253,-0.114,0.061,0.993,0.366,-0.183,-0.061,0.0,N/A
2204.477124503,-0.114,0.061,0.993,0.366,-0.183,-0.061,0.0,N/A
2204.487394544,-0.114,0.061,0.993,0.366,-0.183,-0.061,0.0,N/A
2204.497797583,-0.114,0.061,0.993,0.366,-0.183,-0.061,0.0,N/A
2204.507982166,-0.114,0.061,0.993,0.366,-0.183,-0.061,0.0,N/A
2204.518245789,-0.114,0.061,0.993,0.366,-0.183,-0.061,0.0,N/A
2204.528433581,-0.114,0.061,0.993,0.366,-0.183,-0.061,0.0,N/A
2204.53866308,-0.114,0.061,0.993,0.366,-0.183,-0.061,0.0,N/A
2204.548876246,-0.114,0.061,0.993,0.366,-0.183,-0.061,0.0,N/A
2204.559095829,-0.114,0.061,0.993,0.366,-0.183,-0.061,0.0,N/A
2204.569154997,-0.114,0.061,0.993,0.366,-0.122,-0.061,0.0,N/A
2204.57937808,-0.114,0.062,0.993,0.366,-0.122,-0.061,0.0,N/A
2204.589753994,-0.114,0.062,0.993,0.305,-0.122,-0.061,0.0,N/A
2204.599877036,-0.114,0.062,0.993,0.305,-0.122,-0.061,0.0,N/A
2204.610197826,-0.114,0.062,0.993,0.305,-0.122,-0.061,0.0,N/A
2204.620420617,-0.114,0.062,0.993,0.305,-0.122,-0.061,0.0,N/A
2204.630635824,-0.114,0.062,0.993,0.305,-0.122,0.0,0.0,N/A
2204.640872032,-0.114,0.062,0.993,0.244,-0.122,-0.061,0.0,N/A
2204.651082281,-0.114,0.062,0.993,0.244,-0.061,-0.061,0.0,N/A
2204.661265406,-0.114,0.062,0.993,0.244,-0.061,-0.122,0.0,N/A
2204.671487905,-0.114,0.062,0.993,0.244,-0.061,-0.122,0.0,N/A
2204.68171653,-0.114,0.062,0.993,0.244,-0.061,-0.122,0.0,N/A
2204.691946029,-0.114,0.062,0.993,0.244,-0.061,-0.122,0.0,N/A
2204.702258652,-0.114,0.062,0.993,0.183,-0.061,-0.122,0.0,N/A
2204.71245111,-0.113,0.062,0.993,0.183,0.0,-0.122,0.0,N/A
2204.72262636,-0.113,0.062,0.993,0.183,0.0,-0.122,0.0,N/A
2204.732890276,-0.113,0.062,0.993,0.183,0.0,-0.122,0.0,N/A
2204.743069025,-0.113,0.062,0.993,0.122,0.0,-0.122,0.0,N/A
2204.753290066,-0.113,0.062,0.993,0.122,0.0,-0.122,0.0,N/A
2204.763501483,-0.113,0.062,0.993,0.122,0.0,0.0,0.0,N/A
2204.773734773,-0.113,0.062,0.993,0.122,0.0,-0.122,0.0,N/A
2204.78418652,-0.113,0.062,0.993,0.061,0.0,-0.122,0.0,N/A
2204.794361186,-0.113,0.062,0.993,0.061,0.0,-0.122,0.0,N/A
2204.804560061,-0.113,0.062,0.993,0.061,0.0,0.0,0.0,N/A
2204.814779644,-0.113,0.062,0.993,0.061,0.0,-0.122,0.0,N/A
2204.82499806,-0.113,0.062,0.993,0.0,0.0,-0.122,0.0,N/A
2204.835193434,-0.113,0.062,0.993,0.0,0.0,-0.122,0.0,N/A
2204.845390851,-0.113,0.062,0.993,0.0,0.0,-0.122,0.0,N/A
2204.855829472,-0.113,0.062,0.993,0.0,0.0,-0.122,0.0,N/A
2204.866004722,-0.113,0.062,0.993,0.0,0.061,-0.122,0.0,N/A
2204.876226638,-0.113,0.062,0.993,0.0,0.061,-0.122,0.0,N/A
2204.886458471,-0.113,0.062,0.993,0.0,0.061,-0.122,0.0,N/A
2204.89666172,-0.113,0.062,0.993,-0.061,0.061,-0.122,0.0,N/A
2204.90688072,-0.113,0.062,0.993,-0.061,0.061,-0.122,0.0,N/A
2204.917291342,-0.113,0.062,0.993,-0.061,0.061,-0.122,0.0,N/A
2204.927510341,-0.113,0.062,0.993,-0.061,0.061,-0.122,0.0,N/A
2204.937721466,-0.113,0.062,0.993,-0.061,0.122,-0.122,0.0,N/A
2204.94795709,-0.113,0.062,0.993,-0.122,0.122,-0.122,0.0,N/A
2204.958157423,-0.113,0.062,0.993,-0.122,0.122,-0.122,0.0,N/A
2204.968377589,-0.113,0.062,0.993,-0.122,0.122,-0.183,0.0,N/A
2204.978639754,-0.113,0.062,0.993,-0.122,0.122,-0.183,0.0,N/A
2204.988831337,-0.113,0.062,0.993,-0.122,0.122,-0.183,0.0,N/A
2204.998992004,-0.113,0.062,0.993,-0.183,0.122,-0.183,0.0,N/A
2205.009261169,-0.113,0.062,0.993,-0.183,0.122,-0.183,0.0,N/A
2205.019483085,-0.113,0.062,0.993,-0.183,0.122,0.0,0.0,N/A
2205.02970821,-0.113,0.062,0.993,-0.183,0.122,-0.183,0.0,N/A
2205.039917001,-0.113,0.062,0.993,-0.183,0.122,-0.183,0.0,N/A
2205.050328789,-0.113,0.062,0.993,-0.183,0.122,-0.183,0.0,N/A
2205.060547206,-0.113,0.062,0.993,-0.183,0.122,0.0,0.0,N/A
2205.070755122,-0.113,0.062,0.993,-0.244,0.122,-0.183,0.0,N/A
2205.080965663,-0.113,0.062,0.993,-0.244,0.122,-0.183,0.0,N/A
2205.091294328,-0.114,0.062,0.993,-0.244,0.122,-0.183,0.0,N/A
2205.101490869,-0.114,0.062,0.993,-0.244,0.122,-0.183,0.0,N/A
2205.111828283,-0.114,0.062,0.993,-0.244,0.122,-0.183,0.0,N/A
2205.121872577,-0.114,0.062,0.993,-0.244,0.122,-0.183,0.0,N/A
2205.132084868,-0.114,0.062,0.993,-0.244,0.122,-0.183,0.0,N/A
2205.142292492,-0.114,0.062,0.993,-0.244,0.122,-0.183,0.0,N/A
2205.152517616,-0.114,0.062,0.993,-0.244,0.061,-0.183,0.0,N/A
2205.162741866,-0.114,0.062,0.993,-0.244,0.061,-0.183,0.0,N/A
2205.17295824,-0.114,0.062,0.993,-0.183,0.061,-0.183,0.0,N/A
2205.183190073,-0.114,0.062,0.993,-0.183,0.061,-0.183,0.0,N/A
2205.193576487,-0.114,0.062,0.993,-0.183,0.061,0.0,0.0,N/A
2205.203826694,-0.114,0.062,0.993,-0.183,0.061,-0.183,0.0,N/A
2205.214008944,-0.114,0.062,0.993,-0.183,0.061,-0.183,0.0,N/A
2205.224226193,-0.114,0.062,0.993,-0.183,0.0,-0.183,0.0,N/A
2205.234482525,-0.114,0.062,0.993,-0.183,0.0,-0.183,0.0,N/A
2205.244719608,-0.114,0.062,0.993,-0.183,0.0,-0.183,0.0,N/A
2205.2548794,-0.114,0.062,0.993,-0.122,0.0,-0.183,0.0,N/A
2205.265108024,-0.114,0.062,0.993,-0.122,0.0,-0.122,0.0,N/A
2205.275338981,-0.114,0.062,0.993,-0.122,0.0,-0.122,0.0,N/A
2205.285543106,-0.114,0.062,0.993,-0.061,0.0,-0.122,0.0,N/A
2205.295954311,-0.114,0.062,0.993,-0.061,0.0,-0.122,0.0,N/A
2205.306161644,-0.114,0.062,0.993,-0.061,0.0,-0.122,0.0,N/A
2205.316376269,-0.114,0.062,0.993,-0.061,0.0,-0.122,0.0,N/A
2205.326601685,-0.114,0.062,0.993,0.0,0.0,-0.122,0.0,N/A
2205.336823892,-0.114,0.062,0.993,0.0,0.0,-0.122,0.0,N/A
2205.347033267,-0.115,0.061,0.993,0.0,0.0,-0.122,0.0,N/A
2205.357256641,-0.115,0.061,0.993,0.0,0.0,-0.122,0.0,N/A
2205.367521431,-0.115,0.061,0.993,0.0,-0.061,0.0,0.0,N/A
2205.377748889,-0.115,0.061,0.993,0.0,-0.061,-0.122,0.0,N/A
2205.388136178,-0.115,0.061,0.993,0.061,-0.061,-0.122,0.0,N/A
2205.39851355,-0.115,0.061,0.993,0.061,-0.061,-0.122,0.0,N/A
2205.40873955,-0.115,0.061,0.993,0.061,-0.061,-0.122,0.0,N/A
2205.419305045,-0.115,0.061,0.993,0.122,-0.061,-0.122,0.0,N/A
2205.429684167,-0.115,0.061,0.993,0.122,-0.122,-0.122,0.0,N/A
2205.440072623,-0.115,0.061,0.993,0.183,-0.122,-0.061,0.0,N/A
2205.450498703,-0.115,0.061,0.993,0.183,-0.122,-0.061,0.0,N/A
2205.460859451,-0.115,0.061,0.993,0.183,-0.122,-0.122,0.0,N/A
2205.471244698,-0.115,0.06,0.993,0.244,-0.122,-0.061,0.0,N/A
2205.481862401,-0.115,0.06,0.993,0.244,-0.122,-0.061,0.0,N/A
2205.492156941,-0.115,0.06,0.993,0.244,-0.122,-0.061,0.0,N/A
2205.502584188,-0.115,0.06,0.993,0.305,-0.122,0.0,0.0,N/A
2205.51299306,-0.115,0.06,0.993,0.305,-0.122,-0.061,0.0,N/A
2205.52336489,-0.115,0.06,0.993,0.305,-0.122,-0.061,0.0,N/A
2205.533748971,-0.115,0.06,0.993,0.305,-0.183,-0.061,0.0,N/A
2205.544302508,-0.115,0.06,0.993,0.366,-0.183,-0.061,0.0,N/A
2205.554723047,-0.115,0.06,0.993,0.366,-0.183,-0.061,0.0,N/A
2205.565085544,-0.115,0.06,0.993,0.366,-0.183,-0.061,0.0,N/A
2205.575509291,-0.115,0.06,0.993,0.366,-0.183,-0.061,0.0,N/A
2205.585947621,-0.115,0.06,0.993,0.366,-0.183,-0.061,0.0,N/A
2205.596428534,-0.115,0.06,0.993,0.427,-0.183,-0.061,0.0,N/A
2205.606651617,-0.115,0.06,0.993,0.427,-0.183,-0.061,0.0,N/A
2205.617038614,-0.115,0.06,0.993,0.427,-0.183,-0.061,0.0,N/A
2205.627419486,-0.115,0.06,0.993,0.427,-0.183,-0.061,0.0,N/A
2205.637890482,-0.115,0.06,0.993,0.427,-0.183,-0.061,0.0,N/A
2205.648195814,-0.115,0.06,0.993,0.427,-0.183,-0.061,0.0,N/A
2205.659125888,-0.115,0.06,0.993,0.488,-0.183,-0.061,0.0,N/A
2205.670417624,-0.115,0.06,0.993,0.488,-0.183,-0.061,0.0,N/A
2205.680127088,-0.115,0.06,0.993,0.488,-0.183,-0.061,0.0,N/A
2205.690413462,-0.115,0.06,0.993,0.488,-0.183,-0.061,0.0,N/A
2205.700440255,-0.115,0.06,0.993,0.488,-0.183,-0.061,0.0,N/A
2205.710414841,-0.115,0.06,0.993,0.488,-0.183,-0.061,0.0,N/A
2205.720623049,-0.115,0.06,0.993,0.488,-0.183,-0.061,0.0,N/A
2205.730800924,-0.114,0.061,0.993,0.488,-0.183,-0.061,0.0,N/A
2205.740727093,-0.114,0.061,0.993,0.427,-0.122,-0.061,0.0,N/A
2205.750922759,-0.114,0.061,0.993,0.427,-0.122,-0.061,0.0,N/A
2205.760925345,-0.114,0.061,0.993,0.427,-0.122,-0.061,0.0,N/A
2205.771134136,-0.114,0.061,0.993,0.427,-0.122,-0.061,0.0,N/A
2205.781020931,-0.114,0.061,0.993,0.427,-0.122,-0.061,0.0,N/A
2205.79114339,-0.114,0.061,0.993,0.427,-0.122,-0.061,0.0,N/A
2205.801344015,-0.114,0.061,0.993,0.427,-0.122,-0.061,0.0,N/A
2205.81148864,-0.114,0.061,0.993,0.427,-0.122,-0.061,0.0,N/A
2205.821455934,-0.114,0.061,0.993,0.427,-0.122,-0.061,0.0,N/A
2205.831431395,-0.114,0.061,0.993,0.366,-0.122,-0.061,0.0,N/A
2205.841820434,-0.114,0.061,0.993,0.366,-0.061,-0.061,0.0,N/A
2205.851921018,-0.114,0.062,0.993,0.366,-0.061,0.0,0.0,N/A
2205.861921853,-0.114,0.062,0.993,0.366,-0.061,-0.061,0.0,N/A
2205.872094478,-0.114,0.062,0.993,0.366,-0.061,-0.061,0.0,N/A
2205.882109897,-0.114,0.062,0.993,0.305,-0.061,-0.061,0.0,N/A
2205.892320729,-0.114,0.062,0.993,0.305,-0.061,-0.061,0.0,N/A
2205.90234169,-0.114,0.062,0.993,0.305,-0.061,-0.061,0.0,N/A
2205.913011308,-0.114,0.062,0.993,0.305,-0.061,0.0,0.0,N/A
2205.922814271,-0.114,0.062,0.993,0.244,0.0,-0.122,0.0,N/A
2205.933145436,-0.114,0.062,0.993,0.244,0.0,-0.122,0.0,N/A
2205.94336356,-0.114,0.062,0.993,0.244,0.0,-0.122,0.0,N/A
2205.953774766,-0.114,0.062,0.993,0.244,0.0,-0.122,0.0,N/A
2205.963878266,-0.114,0.062,0.993,0.244,0.0,-0.122,0.0,N/A
2205.974194098,-0.114,0.062,0.993,0.183,0.0,-0.122,0.0,N/A
2205.984410181,-0.113,0.062,0.993,0.183,0.0,-0.122,0.0,N/A
2205.994581055,-0.113,0.062,0.993,0.122,0.0,-0.122,0.0,N/A
2206.004864221,-0.113,0.062,0.993,0.122,0.0,-0.122,0.0,N/A
2206.01505347,-0.113,0.062,0.993,0.122,0.0,-0.122,0.0,N/A
2206.025236887,-0.113,0.062,0.993,0.122,0.0,-0.122,0.0,N/A
2206.035495261,-0.113,0.062,0.993,0.061,0.0,-0.122,0.0,N/A
2206.045722135,-0.113,0.062,0.993,0.061,0.0,-0.122,0.0,N/A
2206.055900885,-0.113,0.062,0.993,0.061,0.0,-0.122,0.0,N/A
2206.066197758,-0.113,0.062,0.993,0.0,0.0,-0.122,0.0,N/A
2206.076332759,-0.113,0.062,0.993,0.0,0.0,-0.122,0.0,N/A
2206.086552633,-0.113,0.062,0.993,0.0,0.061,-0.122,0.0,N/A
2206.096817424,-0.113,0.062,0.993,0.0,0.061,-0.122,0.0,N/A
2206.107179629,-0.113,0.063,0.993,0.0,0.061,-0.122,0.0,N/A
2206.117386087,-0.113,0.062,0.993,0.0,0.061,-0.122,0.0,N/A
2206.127600712,-0.113,0.063,0.993,0.0,0.061,0.0,0.0,N/A
2206.137831086,-0.113,0.062,0.993,-0.061,0.061,-0.122,0.0,N/A
2206.148054752,-0.113,0.063,0.993,-0.061,0.061,-0.122,0.0,N/A
2206.158257418,-0.113,0.062,0.993,-0.061,0.061,-0.122,0.0,N/A
2206.168558375,-0.113,0.062,0.993,-0.061,0.061,-0.122,0.0,N/A
2206.178773291,-0.113,0.063,0.993,-0.122,0.061,-0.122,0.0,N/A
2206.188929874,-0.113,0.062,0.993,-0.122,0.061,-0.122,0.0,N/A
2206.19931658,-0.113,0.063,0.993,-0.122,0.061,-0.122,0.0,N/A
2206.209608787,-0.113,0.062,0.993,-0.122,0.061,0.0,0.0,N/A
2206.219737662,-0.113,0.063,0.993,-0.183,0.061,-0.122,0.0,N/A
2206.229993995,-0.113,0.062,0.993,-0.183,0.061,-0.183,0.0,N/A
2206.240338701,-0.113,0.062,0.993,-0.183,0.061,-0.183,0.0,N/A
2206.25056645,-0.113,0.062,0.993,-0.183,0.061,0.0,0.0,N/A
2206.260822199,-0.113,0.062,0.993,-0.183,0.061,-0.183,0.0,N/A
2206.271004449,-0.113,0.062,0.993,-0.183,0.061,-0.183,0.0,N/A
2206.281220531,-0.113,0.062,0.993,-0.244,0.061,-0.183,0.0,N/A
2206.291441572,-0.113,0.062,0.993,-0.244,0.061,-0.183,0.0,N/A
2206.301671947,-0.113,0.062,0.993,-0.244,0.061,-0.122,0.0,N/A
2206.311867613,-0.113,0.062,0.993,-0.244,0.061,-0.122,0.0,N/A
2206.322099446,-0.113,0.062,0.993,-0.244,0.061,-0.122,0.0,N/A
2206.332313778,-0.113,0.062,0.993,-0.244,0.061,-0.122,0.0,N/A
2206.342539778,-0.113,0.062,0.993,-0.244,0.061,0.0,0.0,N/A
2206.352808651,-0.113,0.062,0.993,-0.244,0.061,-0.122,0.0,N/A
2206.362961151,-0.114,0.062,0.993,-0.244,0.061,-0.122,0.0,N/A
2206.373185692,-0.114,0.062,0.993,-0.244,0.061,-0.183,0.0,N/A
2206.38340265,-0.114,0.062,0.993,-0.244,0.061,-0.183,0.0,N/A
2206.393808897,-0.114,0.062,0.993,-0.244,0.0,-0.122,0.0,N/A
2206.404016522,-0.114,0.062,0.993,-0.244,0.0,-0.122,0.0,N/A
2206.414242521,-0.114,0.062,0.993,-0.244,0.0,-0.122,0.0,N/A
2206.424465312,-0.114,0.062,0.993,-0.244,0.0,-0.122,0.0,N/A
2206.434697728,-0.114,0.062,0.993,-0.244,0.0,-0.122,0.0,N/A
2206.444898061,-0.114,0.062,0.993,-0.244,0.0,-0.122,0.0,N/A
2206.455155268,-0.114,0.062,0.993,-0.183,0.0,-0.122,0.0,N/A
2206.465548099,-0.114,0.062,0.993,-0.183,0.0,-0.122,0.0,N/A
2206.475764181,-0.114,0.062,0.993,-0.183,0.0,-0.122,0.0,N/A
2206.48600068,-0.115,0.062,0.993,-0.183,0.0,-0.122,0.0,N/A
2206.496230471,-0.115,0.062,0.993,-0.183,0.0,-0.122,0.0,N/A
2206.506426429,-0.115,0.062,0.993,-0.183,0.0,-0.122,0.0,N/A
2206.516653595,-0.115,0.062,0.993,-0.122,0.0,-0.122,0.0,N/A
2206.526874345,-0.115,0.062,0.993,-0.122,0.0,-0.122,0.0,N/A
2206.537055136,-0.115,0.062,0.993,-0.122,0.0,-0.122,0.0,N/A
2206.547268302,-0.115,0.062,0.993,-0.122,-0.061,-0.122,0.0,N/A
2206.557483802,-0.115,0.062,0.993,-0.122,-0.061,0.0,0.0,N/A
2206.56788159,-0.115,0.062,0.993,-0.061,-0.061,-0.122,0.0,N/A
2206.578105256,-0.115,0.062,0.993,-0.061,-0.061,-0.122,0.0,N/A
2206.588319881,-0.115,0.062,0.993,-0.061,-0.061,-0.122,0.0,N/A
2206.598548213,-0.115,0.062,0.993,-0.061,-0.061,0.0,0.0,N/A
2206.608825837,-0.115,0.062,0.993,0.0,-0.061,-0.122,0.0,N/A
2206.618973671,-0.115,0.061,0.993,0.0,-0.122,-0.122,0.0,N/A
2206.629199962,-0.115,0.061,0.993,0.0,-0.122,-0.122,0.0,N/A
2206.639421294,-0.115,0.061,0.993,0.0,-0.122,-0.122,0.0,N/A
2206.649848833,-0.115,0.061,0.993,0.0,-0.122,-0.122,0.0,N/A
2206.660040416,-0.115,0.061,0.993,0.0,-0.122,-0.122,0.0,N/A
2206.670249499,-0.115,0.061,0.993,0.061,-0.122,-0.122,0.0,N/A
2206.680471123,-0.115,0.061,0.993,0.061,-0.122,-0.122,0.0,N/A
2206.690725997,-0.115,0.061,0.993,0.061,-0.183,-0.122,0.0,N/A
2206.700965413,-0.115,0.061,0.993,0.122,-0.183,-0.122,0.0,N/A
2206.711187329,-0.115,0.061,0.993,0.122,-0.183,-0.122,0.0,N/A
2206.721565868,-0.115,0.061,0.993,0.122,-0.183,-0.122,0.0,N/A
2206.731611619,-0.115,0.061,0.993,0.183,-0.183,-0.122,0.0,N/A
2206.74185016,-0.115,0.06,0.993,0.183,-0.183,-0.061,0.0,N/A
2206.752015202,-0.115,0.06,0.993,0.244,-0.183,-0.122,0.0,N/A
2206.762230701,-0.115,0.06,0.993,0.244,-0.183,-0.122,0.0,N/A
2206.772615948,-0.115,0.06,0.993,0.244,-0.183,-0.122,0.0,N/A
2206.782840198,-0.115,0.06,0.993,0.244,-0.183,-0.122,0.0,N/A
2206.793062697,-0.115,0.06,0.993,0.305,-0.183,-0.061,0.0,N/A
2206.803296279,-0.115,0.06,0.993,0.305,-0.183,-0.061,0.0,N/A
2206.813503029,-0.115,0.06,0.993,0.305,-0.183,0.0,0.0,N/A
2206.823883026,-0.115,0.06,0.993,0.305,-0.183,-0.061,0.0,N/A
2206.834109317,-0.115,0.06,0.993,0.366,-0.183,-0.061,0.0,N/A
2206.844328317,-0.115,0.06,0.993,0.366,-0.183,-0.061,0.0,N/A
2206.854564233,-0.115,0.06,0.993,0.366,-0.183,0.0,0.0,N/A
2206.864810648,-0.114,0.06,0.993,0.366,-0.183,-0.061,0.0,N/A
2206.875004856,-0.114,0.06,0.993,0.427,-0.183,-0.061,0.0,N/A
2206.885210731,-0.114,0.06,0.993,0.427,-0.183,-0.061,0.0,N/A
2206.895546104,-0.114,0.06,0.993,0.427,-0.183,0.0,0.0,N/A
2206.905820811,-0.114,0.06,0.993,0.427,-0.183,-0.061,0.0,N/A
2206.916067226,-0.114,0.06,0.993,0.427,-0.183,-0.061,0.0,N/A
2206.926264643,-0.114,0.06,0.993,0.488,-0.183,-0.061,0.0,N/A
2206.936466434,-0.114,0.06,0.993,0.488,-0.183,0.0,0.0,N/A
2206.946697391,-0.114,0.06,0.993,0.488,-0.183,-0.061,0.0,N/A
2206.956932432,-0.114,0.06,0.993,0.488,-0.122,-0.061,0.0,N/A
2206.967334596,-0.114,0.06,0.993,0.488,-0.122,-0.061,0.0,N/A
2206.977516554,-0.114,0.06,0.993,0.488,-0.122,0.0,0.0,N/A
2206.987805261,-0.114,0.06,0.993,0.488,-0.122,-0.061,0.0,N/A
2206.997967678,-0.114,0.061,0.993,0.488,-0.122,-0.061,0.0,N/A
2207.008298967,-0.114,0.061,0.993,0.488,-0.122,-0.061,0.0,N/A
2207.018445634,-0.114,0.061,0.993,0.488,-0.122,-0.061,0.0,N/A
2207.02884284,-0.114,0.061,0.993,0.488,-0.122,-0.061,0.0,N/A
2207.039048714,-0.114,0.061,0.993,0.488,-0.061,-0.061,0.0,N/A
2207.049103799,-0.114,0.061,0.993,0.488,-0.061,-0.061,0.0,N/A
2207.059479422,-0.114,0.061,0.993,0.488,-0.061,-0.061,0.0,N/A
2207.069708337,-0.114,0.061,0.993,0.427,-0.061,-0.061,0.0,N/A
2207.079930837,-0.114,0.061,0.993,0.427,-0.061,-0.061,0.0,N/A
2207.090133503,-0.114,0.061,0.993,0.427,-0.061,-0.061,0.0,N/A
2207.100365044,-0.114,0.061,0.993,0.427,-0.061,-0.061,0.0,N/A
2207.110582293,-0.114,0.061,0.993,0.427,0.0,0.0,0.0,N/A
2207.120847667,-0.113,0.062,0.993,0.427,0.0,-0.061,0.0,N/A
2207.131002792,-0.113,0.062,0.993,0.427,0.0,-0.061,0.0,N/A
2207.141405831,-0.113,0.062,0.993,0.427,0.0,-0.061,0.0,N/A
2207.15162308,-0.113,0.062,0.993,0.366,0.0,0.0,0.0,N/A
2207.16183858,-0.113,0.062,0.993,0.366,0.0,-0.061,0.0,N/A
2207.172059329,-0.113,0.062,0.993,0.366,0.0,-0.061,0.0,N/A
2207.182272787,-0.113,0.062,0.993,0.366,0.0,-0.061,0.0,N/A
2207.192344205,-0.113,0.062,0.993,0.305,0.0,-0.061,0.0,N/A
2207.202552996,-0.113,0.062,0.993,0.305,0.0,0.0,0.0,N/A
2207.212764412,-0.113,0.062,0.993,0.305,0.0,-0.122,0.0,N/A
2207.222988078,-0.113,0.062,0.993,0.305,0.0,-0.122,0.0,N/A
2207.233264535,-0.113,0.062,0.993,0.244,0.0,-0.122,0.0,N/A
2207.243412369,-0.113,0.062,0.993,0.244,0.0,-0.122,0.0,N/A
2207.253568952,-0.113,0.062,0.993,0.244,0.061,0.0,0.0,N/A
2207.263840451,-0.113,0.062,0.993,0.183,0.061,-0.122,0.0,N/A
2207.274015701,-0.113,0.062,0.993,0.183,0.061,-0.122,0.0,N/A
2207.284268825,-0.113,0.062,0.993,0.183,0.061,-0.122,0.0,N/A
2207.29450649,-0.113,0.062,0.993,0.183,0.061,-0.122,0.0,N/A
2207.304720531,-0.113,0.062,0.993,0.122,0.061,-0.122,0.0,N/A
2207.31501828,-0.113,0.062,0.993,0.122,0.061,-0.122,0.0,N/A
2207.325197613,-0.113,0.062,0.993,0.122,0.122,-0.122,0.0,N/A
2207.335391529,-0.113,0.062,0.993,0.122,0.122,-0.122,0.0,N/A
2207.34579836,-0.113,0.062,0.993,0.061,0.122,-0.122,0.0,N/A
2207.355984985,-0.113,0.062,0.993,0.061,0.061,-0.122,0.0,N/A
2207.366290024,-0.113,0.062,0.993,0.061,0.122,-0.122,0.0,N/A
2207.376552773,-0.113,0.062,0.993,0.0,0.122,-0.122,0.0,N/A
2207.386682815,-0.113,0.062,0.993,0.0,0.122,-0.122,0.0,N/A
2207.396908523,-0.113,0.062,0.993,0.0,0.122,-0.122,0.0,N/A
2207.407086398,-0.113,0.062,0.993,0.0,0.122,-0.122,0.0,N/A
2207.417354105,-0.113,0.062,0.993,0.0,0.122,-0.122,0.0,N/A
2207.427581271,-0.113,0.062,0.993,0.0,0.122,0.0,0.0,N/A
2207.437846645,-0.113,0.062,0.993,0.0,0.122,-0.183,0.0,N/A
2207.447988353,-0.113,0.062,0.993,-0.061,0.122,-0.183,0.0,N/A
2207.458235936,-0.113,0.062,0.993,-0.061,0.122,-0.122,0.0,N/A
2207.468451143,-0.113,0.062,0.993,-0.061,0.122,-0.122,0.0,N/A
2207.478671601,-0.113,0.062,0.993,-0.061,0.122,-0.183,0.0,N/A
2207.488893517,-0.113,0.062,0.993,-0.122,0.122,-0.183,0.0,N/A
2207.4991166,-0.113,0.062,0.993,-0.122,0.122,-0.183,0.0,N/A
2207.509342891,-0.114,0.063,0.993,-0.122,0.122,-0.183,0.0,N/A
2207.519582015,-0.114,0.063,0.993,-0.122,0.122,-0.183,0.0,N/A
2207.529966096,-0.114,0.063,0.993,-0.183,0.122,-0.183,0.0,N/A
2207.540168178,-0.114,0.063,0.993,-0.183,0.122,-0.183,0.0,N/A
2207.550383386,-0.114,0.063,0.993,-0.183,0.122,-0.183,0.0,N/A
2207.560608802,-0.114,0.063,0.993,-0.183,0.061,-0.183,0.0,N/A
2207.570834801,-0.114,0.063,0.993,-0.183,0.061,-0.183,0.0,N/A
2207.581252715,-0.114,0.063,0.993,-0.183,0.061,-0.183,0.0,N/A
2207.591464131,-0.114,0.063,0.993,-0.183,0.061,-0.183,0.0,N/A
2207.601678464,-0.114,0.063,0.993,-0.183,0.061,0.0,0.0,N/A
2207.61186888,-0.114,0.063,0.993,-0.183,0.061,-0.183,0.0,N/A
2207.622093713,-0.114,0.063,0.993,-0.183,0.0,-0.183,0.0,N/A
2207.63232642,-0.114,0.062,0.993,-0.183,0.0,-0.183,0.0,N/A
2207.64252967,-0.114,0.062,0.993,-0.183,0.0,-0.122,0.0,N/A
2207.652591755,-0.114,0.062,0.993,-0.183,0.0,-0.122,0.0,N/A
2207.662833795,-0.114,0.062,0.993,-0.183,0.0,-0.122,0.0,N/A
2207.673005545,-0.114,0.062,0.993,-0.183,0.0,-0.122,0.0,N/A
2207.68323242,-0.114,0.062,0.993,-0.183,0.0,-0.122,0.0,N/A
2207.693278171,-0.114,0.062,0.993,-0.183,0.0,-0.122,0.0,N/A
2207.703727001,-0.114,0.062,0.993,-0.183,0.0,0.0,0.0,N/A
2207.713876876,-0.114,0.062,0.993,-0.183,0.0,-0.122,0.0,N/A
2207.724101709,-0.114,0.062,0.993,-0.183,0.0,-0.122,0.0,N/A
2207.734335583,-0.114,0.062,0.993,-0.122,0.0,-0.122,0.0,N/A
2207.744542624,-0.114,0.062,0.993,-0.122,0.0,-0.122,0.0,N/A
2207.75475929,-0.115,0.062,0.993,-0.122,0.0,-0.122,0.0,N/A
2207.765148621,-0.115,0.062,0.993,-0.122,0.0,-0.122,0.0,N/A
2207.775377828,-0.115,0.062,0.993,-0.122,0.0,-0.122,0.0,N/A
2207.785587786,-0.115,0.062,0.993,-0.061,-0.061,-0.122,0.0,N/A
2207.795787536,-0.115,0.062,0.993,-0.061,-0.061,-0.122,0.0,N/A
2207.806099867,-0.115,0.062,0.993,-0.061,-0.061,-0.122,0.0,N/A
2207.816243909,-0.115,0.062,0.993,-0.061,-0.061,-0.122,0.0,N/A
2207.826475158,-0.115,0.062,0.993,0.0,-0.061,-0.122,0.0,N/A
2207.836677825,-0.115,0.062,0.993,0.0,-0.122,-0.122,0.0,N/A
2207.847074739,-0.115,0.062,0.993,0.0,-0.122,-0.122,0.0,N/A
2207.857247363,-0.115,0.062,0.993,0.0,-0.122,-0.122,0.0,N/A
2207.867493779,-0.115,0.062,0.993,0.0,-0.122,-0.122,0.0,N/A
2207.877711029,-0.115,0.062,0.993,0.0,-0.122,-0.122,0.0,N/A
2207.887929445,-0.115,0.061,0.993,0.0,-0.122,-0.122,0.0,N/A
2207.898342692,-0.115,0.061,0.993,0.0,-0.122,-0.122,0.0,N/A
2207.90854215,-0.115,0.061,0.993,0.0,-0.122,-0.122,0.0,N/A
2207.918795857,-0.115,0.061,0.993,0.061,-0.183,-0.122,0.0,N/A
2207.928984232,-0.115,0.061,0.993,0.061,-0.183,-0.122,0.0,N/A
2207.939207022,-0.115,0.061,0.993,0.061,-0.183,-0.122,0.0,N/A
2207.949419897,-0.115,0.061,0.993,0.122,-0.183,-0.122,0.0,N/A
2207.959822352,-0.115,0.061,0.993,0.122,-0.183,-0.122,0.0,N/A
2207.970031144,-0.115,0.061,0.993,0.122,-0.183,-0.122,0.0,N/A
2207.980322475,-0.115,0.061,0.993,0.122,-0.183,-0.122,0.0,N/A
2207.990461851,-0.115,0.061,0.993,0.183,-0.183,-0.061,0.0,N/A
2208.000727808,-0.115,0.061,0.993,0.183,-0.183,-0.061,0.0,N/A
2208.010904224,-0.115,0.061,0.993,0.183,-0.183,-0.061,0.0,N/A
2208.021129932,-0.115,0.061,0.993,0.183,-0.183,-0.061,0.0,N/A
2208.031398806,-0.115,0.061,0.993,0.183,-0.183,-0.061,0.0,N/A
2208.041724845,-0.115,0.061,0.993,0.244,-0.183,-0.061,0.0,N/A
2208.051961345,-0.115,0.061,0.993,0.244,-0.244,-0.061,0.0,N/A
2208.062253551,-0.115,0.061,0.993,0.244,-0.244,-0.061,0.0,N/A
2208.07239001,-0.115,0.061,0.993,0.244,-0.244,-0.061,0.0,N/A
2208.082608134,-0.115,0.061,0.993,0.244,-0.183,-0.061,0.0,N/A
2208.092842592,-0.115,0.061,0.993,0.305,-0.122,-0.061,0.0,N/A
2208.103038258,-0.115,0.061,0.993,0.305,0.0,-0.061,0.0,N/A
2208.113263966,-0.115,0.061,0.993,0.366,0.0,-0.061,0.0,N/A
2208.123503965,-0.115,0.061,0.993,0.366,0.061,-0.061,0.0,N/A
2208.133709256,-0.115,0.061,0.993,0.427,0.122,-0.061,0.0,N/A
2208.143925047,-0.114,0.061,0.993,0.427,0.183,-0.061,0.0,N/A
2208.154144338,-0.114,0.061,0.993,0.488,0.244,-0.061,0.0,N/A
2208.164387546,-0.114,0.061,0.993,0.488,0.366,-0.061,0.0,N/A
2208.174587295,-0.114,0.061,0.993,0.488,0.427,0.0,0.0,N/A
2208.184827003,-0.114,0.061,0.993,0.549,0.549,-0.061,0.0,N/A
2208.194962295,-0.114,0.061,0.993,0.549,0.671,-0.061,0.0,N/A
2208.205226794,-0.114,0.061,0.993,0.549,0.793,-0.061,0.0,N/A
2208.215465918,-0.114,0.061,0.993,0.549,0.854,-0.061,0.0,N/A
2208.225664501,-0.114,0.061,0.993,0.549,0.977,0.0,0.0,N/A
2208.235935416,-0.114,0.061,0.993,0.549,1.038,-0.061,0.0,N/A
2208.246110958,-0.114,0.061,0.993,0.549,1.16,-0.061,0.0,N/A
2208.25631829,-0.114,0.061,0.993,0.549,1.221,-0.061,0.0,N/A
2208.266566456,-0.112,0.061,0.993,0.549,1.343,-0.122,0.0,N/A
2208.276825122,-0.112,0.061,0.993,0.61,1.404,-0.122,0.0,N/A
2208.286978789,-0.112,0.061,0.993,0.549,1.465,-0.122,0.0,N/A
2208.297205079,-0.112,0.061,0.993,0.549,1.526,-0.122,0.0,N/A
2208.307418829,-0.112,0.061,0.993,0.549,1.526,-0.061,0.0,N/A
2208.317831493,-0.112,0.061,0.993,0.549,1.465,-0.061,0.0,N/A
2208.327905535,-0.112,0.061,0.993,0.549,1.404,-0.061,0.0,N/A
2208.338328699,-0.112,0.061,0.993,0.549,1.282,-0.061,0.0,N/A
2208.348515324,-0.112,0.061,0.993,0.488,1.221,-0.061,0.0,N/A
2208.359034736,-0.112,0.061,0.993,0.488,1.16,-0.061,0.0,N/A
2208.369424067,-0.112,0.061,0.993,0.427,1.099,-0.061,0.0,N/A
2208.379830314,-0.112,0.061,0.993,0.427,1.099,-0.061,0.0,N/A
2208.390201269,-0.116,0.062,0.993,0.366,1.038,-0.061,0.0,N/A
2208.400592642,-0.116,0.062,0.993,0.366,0.916,0.0,0.0,N/A
2208.410984889,-0.116,0.062,0.993,0.305,0.854,-0.061,0.0,N/A
2208.421370136,-0.116,0.062,0.993,0.244,0.793,-0.061,0.0,N/A
2208.431757134,-0.116,0.062,0.993,0.244,0.732,-0.061,0.0,N/A
2208.442317379,-0.116,0.062,0.993,0.183,0.671,-0.061,0.0,N/A
2208.452539878,-0.116,0.062,0.993,0.183,0.61,-0.061,0.0,N/A
2208.462913751,-0.116,0.062,0.993,0.183,0.549,-0.061,0.0,N/A
2208.473318248,-0.116,0.062,0.993,0.122,0.488,-0.061,0.0,N/A
2208.483875868,-0.116,0.062,0.993,0.122,0.427,-0.061,0.0,N/A
2208.49426024,-0.116,0.062,0.993,0.061,0.366,-0.061,0.0,N/A
2208.504616613,-0.116,0.062,0.993,0.061,0.244,-0.061,0.0,N/A
2208.514991944,-0.116,0.062,0.993,0.0,0.183,-0.061,0.0,N/A
2208.525383607,-0.12,0.063,0.993,0.0,0.122,-0.061,0.0,N/A
2208.535935978,-0.12,0.063,0.993,0.0,0.061,-0.061,0.0,N/A
2208.5463431,-0.12,0.063,0.993,0.0,0.0,-0.061,0.0,N/A
2208.556791346,-0.12,0.063,0.993,0.0,0.0,-0.061,0.0,N/A
2208.567097845,-0.12,0.063,0.993,-0.061,-0.122,0.0,0.0,N/A
2208.5774898,-0.12,0.063,0.993,-0.061,-0.183,0.0,0.0,N/A
2208.587896339,-0.12,0.063,0.993,-0.122,-0.244,0.0,0.0,N/A
2208.598449584,-0.12,0.063,0.993,-0.122,-0.305,0.0,0.0,N/A
2208.60883279,-0.12,0.063,0.993,-0.122,-0.366,0.0,0.0,N/A
2208.619237579,-0.12,0.063,0.993,-0.183,-0.427,0.0,0.0,N/A
2208.629603576,-0.12,0.063,0.993,-0.183,-0.549,0.0,0.0,N/A
2208.63998649,-0.12,0.063,0.993,-0.244,-0.61,0.0,0.0,N/A
2208.650396821,-0.121,0.063,0.993,-0.244,-0.61,0.0,0.0,N/A
2208.660942483,-0.121,0.063,0.993,-0.244,-0.732,0.0,0.0,N/A
2208.671414645,-0.121,0.063,0.993,-0.305,-0.793,0.0,0.0,N/A
2208.68186085,-0.121,0.063,0.993,-0.305,-0.854,0.0,0.0,N/A
2208.692120391,-0.121,0.063,0.993,-0.305,-0.854,0.0,0.0,N/A
2208.702521971,-0.121,0.063,0.993,-0.305,-0.916,0.0,0.0,N/A
2208.713106425,-0.121,0.063,0.993,-0.305,-0.977,0.0,0.0,N/A
2208.723454631,-0.121,0.063,0.993,-0.366,-1.038,0.0,0.0,N/A
2208.733837836,-0.121,0.063,0.993,-0.366,-1.099,0.0,0.0,N/A
2208.744304749,-0.121,0.063,0.993,-0.366,-1.16,0.0,0.0,N/A
2208.754779829,-0.121,0.063,0.993,-0.366,-1.16,0.0,0.0,N/A
2208.765167409,-0.121,0.063,0.993,-0.427,-1.282,0.0,0.0,N/A
2208.775560532,-0.12,0.062,0.992,-0.427,-1.282,0.0,0.0,N/A
2208.785942571,-0.12,0.062,0.992,-0.427,-1.221,-0.061,0.0,N/A
2208.796343276,-0.12,0.062,0.992,-0.488,-1.16,-0.061,0.0,N/A
2208.806883688,-0.12,0.062,0.992,-0.488,-1.16,-0.061,0.0,N/A
2208.817286435,-0.12,0.062,0.992,-0.488,-1.221,-0.061,0.0,N/A
2208.827662641,-0.12,0.062,0.992,-0.488,-1.282,-0.061,0.0,N/A
2208.838041764,-0.12,0.062,0.992,-0.488,-1.343,-0.061,0.0,N/A
2208.848430511,-0.12,0.062,0.992,-0.488,-1.343,-0.061,0.0,N/A
2208.858818383,-0.12,0.062,0.992,-0.488,-1.282,-0.061,0.0,N/A
2208.869201589,-0.12,0.062,0.992,-0.488,-1.282,-0.122,0.0,N/A
2208.879783417,-0.12,0.062,0.992,-0.488,-1.282,-0.122,0.0,N/A
2208.890154665,-0.12,0.062,0.992,-0.488,-1.282,-0.122,0.0,N/A
2208.900540203,-0.116,0.062,0.993,-0.488,-1.221,-0.122,0.0,N/A
2208.910927201,-0.116,0.062,0.993,-0.488,-1.16,-0.122,0.0,N/A
2208.921355614,-0.116,0.062,0.993,-0.488,-1.16,-0.122,0.0,N/A
2208.931702654,-0.116,0.062,0.993,-0.488,-1.16,-0.122,0.0,N/A
2208.942275732,-0.116,0.062,0.993,-0.488,-1.16,-0.122,0.0,N/A
2208.952265484,-0.116,0.062,0.993,-0.427,-1.099,-0.183,0.0,N/A
2208.962694189,-0.116,0.062,0.993,-0.427,-1.038,-0.183,0.0,N/A
2208.97308177,-0.116,0.062,0.993,-0.427,-0.977,-0.183,0.0,N/A
2208.983477226,-0.116,0.062,0.993,-0.427,-0.916,-0.183,0.0,N/A
2208.99383039,-0.116,0.062,0.993,-0.427,-0.854,-0.244,0.0,N/A
2209.004310136,-0.116,0.062,0.993,-0.427,-0.854,-0.244,0.0,N/A
2209.014930755,-0.116,0.062,0.993,-0.427,-0.732,-0.244,0.0,N/A
2209.025248337,-0.113,0.061,0.994,-0.427,-0.671,-0.244,0.0,N/A
2209.035626584,-0.114,0.061,0.994,-0.366,-0.549,0.0,0.0,N/A
2209.046031956,-0.113,0.061,0.994,-0.366,-0.549,-0.305,0.0,N/A
2209.056417495,-0.113,0.061,0.994,-0.366,-0.488,-0.305,0.0,N/A
2209.066815868,-0.113,0.061,0.994,-0.366,-0.366,-0.305,0.0,N/A
2209.077190907,-0.114,0.061,0.994,-0.366,-0.305,-0.305,0.0,N/A
2209.087579946,-0.113,0.061,0.994,-0.366,-0.244,0.0,0.0,N/A
2209.097978318,-0.113,0.061,0.994,-0.305,-0.244,-0.366,0.0,N/A
2209.108365023,-0.113,0.061,0.994,-0.305,-0.244,-0.366,0.0,N/A
2209.118817062,-0.113,0.061,0.994,-0.305,-0.183,-0.366,0.0,N/A
2209.129317224,-0.113,0.061,0.994,-0.244,-0.183,-0.366,0.0,N/A
2209.139704221,-0.113,0.061,0.994,-0.244,-0.183,-0.427,0.0,N/A
2209.149950637,-0.113,0.061,0.994,-0.183,-0.183,-0.427,0.0,N/A
2209.160488133,-0.112,0.06,0.994,-0.183,-0.122,-0.427,0.0,N/A
2209.170868713,-0.112,0.06,0.994,-0.183,-0.122,-0.427,0.0,N/A
2209.18127146,-0.112,0.06,0.994,-0.122,-0.061,-0.488,0.0,N/A
2209.19173604,-0.112,0.06,0.994,-0.122,-0.122,-0.488,0.0,N/A
2209.202145204,-0.112,0.06,0.994,-0.061,-0.122,-0.549,0.0,N/A
2209.212685033,-0.112,0.06,0.994,-0.061,-0.061,-0.427,0.0,N/A
2209.222993281,-0.112,0.06,0.994,-0.061,0.0,-0.671,0.0,N/A
2209.233471277,-0.112,0.06,0.994,-0.061,0.0,-0.671,0.0,N/A
2209.243941107,-0.112,0.06,0.994,-0.061,0.0,-0.732,0.0,N/A
2209.254342395,-0.112,0.06,0.994,-0.061,-0.061,-0.793,0.0,N/A
2209.264715976,-0.112,0.06,0.994,-0.061,-0.061,-0.793,0.0,N/A
2209.27510939,-0.112,0.06,0.994,-0.061,0.0,-0.854,0.0,N/A
2209.285494929,-0.114,0.06,0.996,-0.061,0.0,-0.916,0.0,N/A
2209.295965342,-0.114,0.06,0.996,-0.061,0.0,-0.916,0.0,N/A
2209.306270965,-0.114,0.06,0.996,0.0,0.0,-0.916,0.0,N/A
2209.316842002,-0.114,0.06,0.996,0.0,0.061,-0.977,0.0,N/A
