MonoNS,EstNS,MonoS,EstS,AccX,AccY,AccZ,GyroX,GyroY,GyroZ
2188317849613,2188315849613,2188.317849613,2188.315849613,-0.113,0.061,0.993,0.0,0.0,-0.122
2188334980444,2188332980444,2188.334980444,2188.332980444,-0.113,0.061,0.993,0.0,0.0,-0.122
2188346503469,2188344503469,2188.346503469,2188.344503469,-0.113,0.061,0.993,0.0,0.0,-0.122
2188356740260,2188354740260,2188.35674026,2188.35474026,-0.113,0.061,0.993,0.0,0.0,-0.122
2188366757720,2188364757720,2188.36675772,2188.36475772,-0.113,0.061,0.993,0.0,0.0,-0.122
2188377860750,2188375860750,2188.37786075,2188.37586075,-0.113,0.061,0.993,0.0,0.0,-0.122
2188387937126,2188385937126,2188.387937126,2188.385937126,-0.113,0.061,0.993,0.0,0.0,-0.122
2188398052294,2188396052294,2188.398052294,2188.396052294,-0.113,0.061,0.993,0.0,0.0,-0.122
2188408265460,2188406265460,2188.40826546,2188.40626546,-0.113,0.061,0.993,0.0,0.0,-0.122
2188418490001,2188416490001,2188.418490001,2188.416490001,-0.113,0.061,0.993,0.0,0.0,0.0
2188428870581,2188426870581,2188.428870581,2188.426870581,-0.113,0.061,0.993,0.0,0.0,-0.122
2188439108247,2188437108247,2188.439108247,2188.437108247,-0.113,0.061,0.993,0.0,0.0,-0.122
2188449306830,2188447306830,2188.44930683,2188.44730683,-0.113,0.061,0.993,0.0,0.0,-0.122
2188459479163,2188457479163,2188.459479163,2188.457479163,-0.113,0.061,0.993,0.0,0.0,0.0
2188469639830,2188467639830,2188.46963983,2188.46763983,-0.113,0.061,0.993,0.0,0.0,-0.122
2188480017786,2188478017786,2188.480017786,2188.478017786,-0.113,0.061,0.993,0.0,0.0,-0.122
2188490558781,2188488558781,2188.490558781,2188.488558781,-0.113,0.061,0.993,0.0,0.0,-0.122
2188500694365,2188498694365,2188.500694365,2188.498694365,-0.113,0.061,0.993,0.0,0.0,-0.122
2188510904906,2188508904906,2188.510904906,2188.508904906,-0.113,0.061,0.993,0.0,0.0,-0.122
2188521163572,2188519163572,2188.521163572,2188.519163572,-0.113,0.061,0.993,0.0,0.0,-0.122
2188536595757,2188534595757,2188.536595757,2188.534595757,-0.113,0.061,0.993,0.0,0.0,-0.122
2188541653778,2188539653778,2188.541653778,2188.539653778,-0.113,0.061,0.993,0.0,0.0,-0.122
2188551982443,2188549982443,2188.551982443,2188.549982443,-0.113,0.061,0.993,0.0,0.0,-0.122
2188561913862,2188559913862,2188.561913862,2188.559913862,-0.113,0.061,0.993,0.0,0.0,-0.122
2188572231444,2188570231444,2188.572231444,2188.570231444,-0.113,0.061,0.993,0.0,0.0,-0.122
2188582426819,2188580426819,2188.582426819,2188.580426819,-0.114,0.061,0.993,0.0,0.0,-0.122
2188592777941,2188590777941,2188.592777941,2188.590777941,-0.114,0.061,0.993,0.0,0.0,-0.122
2188602794526,2188600794526,2188.602794526,2188.600794526,-0.114,0.061,0.993,0.0,0.0,-0.122
2188613082067,2188611082067,2188.613082067,2188.611082067,-0.114,0.061,0.993,0.0,0.0,-0.122
2188623315941,2188621315941,2188.623315941,2188.621315941,-0.114,0.061,0.993,0.0,0.0,-0.122
2188633530274,2188631530274,2188.633530274,2188.631530274,-0.114,0.061,0.993,0.0,0.0,-0.122
2188643733523,2188641733523,2188.643733523,2188.641733523,-0.114,0.061,0.993,0.0,0.0,-0.122
2188654153478,2188652153478,2188.654153478,2188.652153478,-0.114,0.061,0.993,0.0,0.0,-0.122
2188664186980,2188662186980,2188.66418698,2188.66218698,-0.114,0.061,0.993,0.0,0.0,-0.122
2188674422896,2188672422896,2188.674422896,2188.672422896,-0.114,0.061,0.993,0.0,0.0,-0.122
2188684637812,2188682637812,2188.684637812,2188.682637812,-0.114,0.061,0.993,0.0,0.0,-0.122
2188694815978,2188692815978,2188.694815978,2188.692815978,-0.114,0.061,0.993,0.0,0.0,-0.122
2188705043728,2188703043728,2188.705043728,2188.703043728,-0.114,0.061,0.993,0.0,0.0,-0.122
2188721597358,2188719597358,2188.721597358,2188.719597358,-0.115,0.062,0.993,0.0,0.0,-0.122
2188742552767,2188740552767,2188.742552767,2188.740552767,-0.115,0.062,0.993,0.0,0.0,-0.122
2188752288189,2188750288189,2188.752288189,2188.750288189,-0.115,0.062,0.993,0.0,0.0,-0.122
2188762708144,2188760708144,2188.762708144,2188.760708144,-0.115,0.062,0.993,0.0,0.0,-0.122
2188772879894,2188770879894,2188.772879894,2188.770879894,-0.115,0.062,0.993,0.0,0.0,-0.122
2188783112018,2188781112018,2188.783112018,2188.781112018,-0.115,0.062,0.993,0.0,0.0,-0.122
2188793361934,2188791361934,2188.793361934,2188.791361934,-0.115,0.062,0.993,0.0,0.0,-0.122
2188803554392,2188801554392,2188.803554392,2188.801554392,-0.115,0.062,0.993,0.0,0.0,-0.122
2188813755599,2188811755599,2188.813755599,2188.811755599,-0.115,0.062,0.993,0.0,0.0,-0.122
2188823981599,2188821981599,2188.823981599,2188.821981599,-0.115,0.062,0.993,0.0,0.0,-0.122
2188834179307,2188832179307,2188.834179307,2188.832179307,-0.115,0.062,0.993,0.0,0.0,-0.122
2188844361848,2188842361848,2188.844361848,2188.842361848,-0.115,0.062,0.993,0.0,0.0,-0.122
2188854612931,2188852612931,2188.854612931,2188.852612931,-0.115,0.062,0.993,0.0,0.0,0.0
2188864802180,2188862802180,2188.86480218,2188.86280218,-0.115,0.062,0.993,0.0,0.0,-0.122
2188875068429,2188873068429,2188.875068429,2188.873068429,-0.115,0.062,0.993,0.0,0.0,-0.122
2188885300553,2188883300553,2188.885300553,2188.883300553,-0.115,0.062,0.993,0.0,0.0,-0.122
2188895516928,2188893516928,2188.895516928,2188.893516928,-0.115,0.062,0.993,0.0,0.0,0.0
2188905747302,2188903747302,2188.905747302,2188.903747302,-0.115,0.062,0.993,0.0,0.0,-0.122
2188916101925,2188914101925,2188.916101925,2188.914101925,-0.115,0.062,0.993,0.0,0.0,-0.122
2188926361757,2188924361757,2188.926361757,2188.924361757,-0.115,0.062,0.993,0.0,0.0,-0.122
2188936518340,2188934518340,2188.93651834,2188.93451834,-0.115,0.062,0.993,0.0,0.0,0.0
2188946747548,2188944747548,2188.946747548,2188.944747548,-0.115,0.062,0.993,0.0,0.0,-0.122
2188956950214,2188954950214,2188.956950214,2188.954950214,-0.115,0.062,0.993,0.0,0.0,-0.122
2188967187005,2188965187005,2188.967187005,2188.965187005,-0.115,0.062,0.993,0.0,0.0,-0.122
2188977387046,2188975387046,2188.977387046,2188.975387046,-0.115,0.062,0.993,0.0,0.0,-0.122
2188987622962,2188985622962,2188.987622962,2188.985622962,-0.115,0.062,0.993,0.0,0.0,-0.122
2188997853628,2188995853628,2188.997853628,2188.995853628,-0.115,0.062,0.993,0.0,0.0,-0.122
2189008063586,2189006063586,2189.008063586,2189.006063586,-0.115,0.062,0.993,0.0,0.0,-0.122
2189018467208,2189016467208,2189.018467208,2189.016467208,-0.115,0.062,0.993,0.0,0.0,-0.122
2189029136827,2189027136827,2189.029136827,2189.027136827,-0.115,0.062,0.993,0.0,0.0,-0.122
2189039137662,2189037137662,2189.039137662,2189.037137662,-0.115,0.062,0.993,0.0,0.0,-0.122
2189049422285,2189047422285,2189.049422285,2189.047422285,-0.115,0.062,0.993,0.0,0.0,-0.122
2189059656451,2189057656451,2189.059656451,2189.057656451,-0.115,0.062,0.993,0.0,0.0,-0.122
2189069854159,2189067854159,2189.069854159,2189.067854159,-0.115,0.062,0.993,0.0,0.0,-0.122
2189080067617,2189078067617,2189.080067617,2189.078067617,-0.115,0.062,0.993,0.0,0.0,-0.122
2189090291866,2189088291866,2189.090291866,2189.088291866,-0.115,0.062,0.993,0.0,0.0,-0.122
2189100344618,2189098344618,2189.100344618,2189.098344618,-0.115,0.062,0.993,0.0,0.0,-0.122
2189110570909,2189108570909,2189.110570909,2189.108570909,-0.115,0.062,0.993,0.0,0.0,-0.122
2189121011280,2189119011280,2189.12101128,2189.11901128,-0.115,0.062,0.993,0.0,0.0,-0.122
2189131246904,2189129246904,2189.131246904,2189.129246904,-0.115,0.062,0.993,0.0,0.0,-0.122
2189141397655,2189139397655,2189.141397655,2189.139397655,-0.115,0.062,0.993,0.0,0.0,-0.122
2189151640279,2189149640279,2189.151640279,2189.149640279,-0.115,0.062,0.993,0.0,0.0,-0.122
2189161876778,2189159876778,2189.161876778,2189.159876778,-0.115,0.062,0.993,0.0,0.0,-0.122
2189172057278,2189170057278,2189.172057278,2189.170057278,-0.115,0.062,0.993,0.0,0.0,-0.122
2189182292902,2189180292902,2189.182292902,2189.180292902,-0.115,0.062,0.993,0.0,0.0,-0.122
2189192487985,2189190487985,2189.192487985,2189.190487985,-0.115,0.062,0.993,0.0,0.0,0.0
2189202898024,2189200898024,2189.202898024,2189.200898024,-0.115,0.062,0.993,0.0,0.0,-0.122
2189213099523,2189211099523,2189.213099523,2189.211099523,-0.115,0.062,0.993,0.0,0.0,-0.122
2189223337772,2189221337772,2189.223337772,2189.221337772,-0.114,0.062,0.993,0.0,0.0,-0.122
2189233533730,2189231533730,2189.23353373,2189.23153373,-0.114,0.062,0.993,0.0,0.0,-0.122
2189243761479,2189241761479,2189.243761479,2189.241761479,-0.114,0.062,0.993,0.0,0.0,-0.122
2189254151685,2189252151685,2189.254151685,2189.252151685,-0.114,0.062,0.993,0.0,0.0,-0.122
2189264379726,2189262379726,2189.264379726,2189.262379726,-0.114,0.062,0.993,0.0,0.0,-0.061
2189274592017,2189272592017,2189.274592017,2189.272592017,-0.114,0.062,0.993,0.0,0.0,0.0
2189284834058,2189282834058,2189.284834058,2189.282834058,-0.114,0.062,0.993,0.0,0.0,-0.061
2189295017766,2189293017766,2189.295017766,2189.293017766,-0.114,0.062,0.993,0.0,0.0,-0.061
2189305237057,2189303237057,2189.305237057,2189.303237057,-0.114,0.062,0.993,0.0,0.0,-0.061
2189315763469,2189313763469,2189.315763469,2189.313763469,-0.114,0.062,0.993,0.0,0.0,0.0
2189325852679,2189323852679,2189.325852679,2189.323852679,-0.114,0.062,0.993,0.0,0.0,-0.122
2189335896097,2189333896097,2189.335896097,2189.333896097,-0.114,0.062,0.993,0.0,0.0,-0.122
2189346310802,2189344310802,2189.346310802,2189.344310802,-0.113,0.062,0.993,0.0,0.0,-0.122
2189356720257,2189354720257,2189.356720257,2189.354720257,-0.113,0.062,0.993,0.0,0.0,-0.122
2189366907465,2189364907465,2189.366907465,2189.364907465,-0.113,0.062,0.993,0.0,0.0,-0.122
2189376951175,2189374951175,2189.376951175,2189.374951175,-0.113,0.062,0.993,0.0,0.0,-0.122
2189387647044,2189385647044,2189.387647044,2189.385647044,-0.113,0.062,0.993,0.0,0.0,-0.122
2189398460744,2189396460744,2189.398460744,2189.396460744,-0.113,0.062,0.993,0.0,0.0,-0.122
2189408060251,2189406060251,2189.408060251,2189.406060251,-0.113,0.062,0.993,0.0,0.0,-0.122
2189418348666,2189416348666,2189.418348666,2189.416348666,-0.114,0.062,0.993,0.0,0.0,-0.122
2189428370502,2189426370502,2189.428370502,2189.426370502,-0.113,0.062,0.993,0.0,0.0,-0.122
2189438586876,2189436586876,2189.438586876,2189.436586876,-0.114,0.062,0.993,0.0,0.0,-0.122
2189448802375,2189446802375,2189.448802375,2189.446802375,-0.113,0.062,0.993,0.0,0.0,-0.122
2189459203664,2189457203664,2189.459203664,2189.457203664,-0.113,0.062,0.993,0.0,0.0,-0.122
2189469417414,2189467417414,2189.469417414,2189.467417414,-0.113,0.062,0.993,0.0,0.0,-0.122
2189479630871,2189477630871,2189.479630871,2189.477630871,-0.113,0.061,0.993,0.0,0.0,0.0
2189489860371,2189487860371,2189.489860371,2189.487860371,-0.113,0.061,0.993,0.0,0.0,-0.122
2189500107661,2189498107661,2189.500107661,2189.498107661,-0.113,0.061,0.993,0.0,0.0,-0.122
2189510283203,2189508283203,2189.510283203,2189.508283203,-0.113,0.061,0.993,0.0,0.0,-0.122
2189520528452,2189518528452,2189.520528452,2189.518528452,-0.113,0.061,0.993,0.0,0.0,0.0
2189530724701,2189528724701,2189.530724701,2189.528724701,-0.113,0.061,0.993,0.0,0.0,-0.122
2189540943409,2189538943409,2189.540943409,2189.538943409,-0.113,0.061,0.993,0.0,0.0,-0.122
2189551216950,2189549216950,2189.55121695,2189.54921695,-0.113,0.061,0.993,0.0,0.0,-0.122
2189561569531,2189559569531,2189.561569531,2189.559569531,-0.113,0.061,0.993,0.0,0.0,-0.122
2189571602449,2189569602449,2189.571602449,2189.569602449,-0.113,0.061,0.993,0.0,0.0,-0.122
2189581995279,2189579995279,2189.581995279,2189.579995279,-0.113,0.061,0.993,0.0,0.0,-0.122
2189592203196,2189590203196,2189.592203196,2189.590203196,-0.113,0.061,0.993,0.0,0.0,-0.122
2189602401487,2189600401487,2189.602401487,2189.600401487,-0.113,0.061,0.993,0.0,0.0,-0.122
2189612645569,2189610645569,2189.612645569,2189.610645569,-0.113,0.061,0.993,0.0,0.0,0.0
2189622863110,2189620863110,2189.62286311,2189.62086311,-0.113,0.061,0.993,0.0,0.0,-0.122
2189640242147,2189638242147,2189.640242147,2189.638242147,-0.113,0.061,0.993,0.0,0.0,-0.122
2189652208500,2189650208500,2189.6522085,2189.6502085,-0.113,0.061,0.993,0.0,0.0,-0.122
2189662561956,2189660561956,2189.662561956,2189.660561956,-0.113,0.061,0.993,0.0,0.0,0.0
2189672785330,2189670785330,2189.67278533,2189.67078533,-0.113,0.061,0.993,0.0,0.0,-0.122
2189682948330,2189680948330,2189.68294833,2189.68094833,-0.113,0.061,0.993,0.0,0.0,-0.122
2189693405910,2189691405910,2189.69340591,2189.69140591,-0.113,0.061,0.993,0.0,0.0,-0.122
2189703594868,2189701594868,2189.703594868,2189.701594868,-0.113,0.061,0.993,0.0,0.0,0.0
2189714405943,2189712405943,2189.714405943,2189.712405943,-0.113,0.061,0.993,0.0,0.0,-0.122
2189726902540,2189724902540,2189.72690254,2189.72490254,-0.113,0.061,0.993,0.0,0.0,-0.122
2189736367007,2189734367007,2189.736367007,2189.734367007,-0.113,0.061,0.993,0.0,0.0,-0.122
2189746693921,2189744693921,2189.746693921,2189.744693921,-0.113,0.061,0.993,0.0,0.0,-0.122
2189756918754,2189754918754,2189.756918754,2189.754918754,-0.113,0.061,0.993,0.0,0.0,-0.122
2189767047921,2189765047921,2189.767047921,2189.765047921,-0.113,0.061,0.993,0.0,0.0,-0.122
2189777387669,2189775387669,2189.777387669,2189.775387669,-0.113,0.061,0.993,0.0,0.0,-0.122
2189787573710,2189785573710,2189.78757371,2189.78557371,-0.113,0.061,0.993,0.0,0.0,-0.122
2189797977332,2189795977332,2189.797977332,2189.795977332,-0.113,0.061,0.993,0.0,0.0,-0.122
2189808150541,2189806150541,2189.808150541,2189.806150541,-0.113,0.061,0.993,0.0,0.0,-0.122
2189818387331,2189816387331,2189.818387331,2189.816387331,-0.113,0.061,0.993,0.0,0.0,-0.122
2189828552082,2189826552082,2189.828552082,2189.826552082,-0.113,0.061,0.993,0.0,0.0,-0.122
2189838829413,2189836829413,2189.838829413,2189.836829413,-0.113,0.061,0.993,0.0,0.0,-0.122
2189849227202,2189847227202,2189.849227202,2189.847227202,-0.113,0.061,0.993,0.0,0.0,-0.122
2189864527264,2189862527264,2189.864527264,2189.862527264,-0.114,0.062,0.993,0.0,0.0,-0.122
2189875178217,2189873178217,2189.875178217,2189.873178217,-0.114,0.062,0.993,0.0,0.0,-0.122
2189884646767,2189882646767,2189.884646767,2189.882646767,-0.114,0.062,0.993,0.0,0.0,-0.122
2189894832892,2189892832892,2189.894832892,2189.892832892,-0.114,0.062,0.993,0.0,0.0,-0.122
2189905241597,2189903241597,2189.905241597,2189.903241597,-0.114,0.062,0.993,0.0,0.0,-0.122
2189915465263,2189913465263,2189.915465263,2189.913465263,-0.114,0.062,0.993,0.0,0.0,-0.122
2189925646929,2189923646929,2189.925646929,2189.923646929,-0.114,0.062,0.993,0.0,0.0,-0.122
2189935862721,2189933862721,2189.935862721,2189.933862721,-0.114,0.062,0.993,0.0,0.0,-0.122
2189946585714,2189944585714,2189.946585714,2189.944585714,-0.114,0.062,0.993,0.0,0.0,-0.122
2189956339510,2189954339510,2189.95633951,2189.95433951,-0.114,0.062,0.993,0.0,0.0,-0.122
2189966557051,2189964557051,2189.966557051,2189.964557051,-0.114,0.062,0.993,0.0,0.0,-0.122
2189976961257,2189974961257,2189.976961257,2189.974961257,-0.114,0.062,0.993,0.0,0.0,-0.122
2189987220214,2189985220214,2189.987220214,2189.985220214,-0.114,0.062,0.993,0.0,0.0,-0.122
2189997398964,2189995398964,2189.997398964,2189.995398964,-0.114,0.062,0.993,0.0,0.0,-0.122
2190007793253,2190005793253,2190.007793253,2190.005793253,-0.114,0.062,0.993,0.0,0.0,-0.122
2190017980169,2190015980169,2190.017980169,2190.015980169,-0.114,0.062,0.993,0.0,0.0,-0.122
2190028164169,2190026164169,2190.028164169,2190.026164169,-0.114,0.062,0.993,0.0,0.0,-0.122
2190038414085,2190036414085,2190.038414085,2190.036414085,-0.114,0.062,0.993,0.0,0.0,-0.122
2190048641251,2190046641251,2190.048641251,2190.046641251,-0.114,0.062,0.993,0.0,0.0,-0.122
2190060081152,2190058081152,2190.060081152,2190.058081152,-0.114,0.062,0.993,0.0,0.0,-0.122
2190082095006,2190080095006,2190.082095006,2190.080095006,-0.114,0.062,0.993,0.0,0.0,-0.122
2190092568919,2190090568919,2190.092568919,2190.090568919,-0.114,0.062,0.993,0.0,0.0,-0.122
2190102930542,2190100930542,2190.102930542,2190.100930542,-0.114,0.062,0.993,0.0,0.0,-0.122
2190113180166,2190111180166,2190.113180166,2190.111180166,-0.115,0.062,0.993,0.0,0.0,-0.122
2190123408498,2190121408498,2190.123408498,2190.121408498,-0.115,0.062,0.993,0.0,0.0,-0.122
2190133593081,2190131593081,2190.133593081,2190.131593081,-0.115,0.062,0.993,0.0,0.0,-0.122
2190143810622,2190141810622,2190.143810622,2190.141810622,-0.115,0.062,0.993,0.0,0.0,-0.122
2190154038080,2190152038080,2190.15403808,2190.15203808,-0.115,0.062,0.993,0.0,0.0,-0.122
2190164248329,2190162248329,2190.164248329,2190.162248329,-0.115,0.062,0.993,0.0,0.0,-0.122
2190174448662,2190172448662,2190.174448662,2190.172448662,-0.115,0.062,0.993,0.0,0.0,0.0
2190184763035,2190182763035,2190.184763035,2190.182763035,-0.115,0.062,0.993,0.0,0.0,-0.122
2190195024618,2190193024618,2190.195024618,2190.193024618,-0.115,0.062,0.993,0.0,0.0,-0.122
2190205190826,2190203190826,2190.205190826,2190.203190826,-0.115,0.062,0.993,0.0,0.0,-0.122
2190215361118,2190213361118,2190.215361118,2190.213361118,-0.115,0.062,0.993,0.0,0.0,-0.122
2190225576617,2190223576617,2190.225576617,2190.223576617,-0.115,0.062,0.993,0.0,0.0,-0.122
2190235978781,2190233978781,2190.235978781,2190.233978781,-0.115,0.062,0.993,0.0,0.0,-0.122
2190246540193,2190244540193,2190.246540193,2190.244540193,-0.115,0.062,0.993,0.0,0.0,-0.122
2190256434571,2190254434571,2190.256434571,2190.254434571,-0.115,0.062,0.993,0.0,0.0,-0.122
2190266662195,2190264662195,2190.266662195,2190.264662195,-0.115,0.062,0.993,0.0,0.0,-0.122
2190276996027,2190274996027,2190.276996027,2190.274996027,-0.115,0.062,0.993,0.0,0.0,-0.122
2190287215318,2190285215318,2190.287215318,2190.285215318,-0.115,0.062,0.993,0.0,0.0,-0.122
2190297425567,2190295425567,2190.297425567,2190.295425567,-0.115,0.062,0.993,0.0,0.0,-0.122
2190307678108,2190305678108,2190.307678108,2190.305678108,-0.115,0.062,0.993,0.0,0.0,-0.061
2190317872899,2190315872899,2190.317872899,2190.315872899,-0.115,0.062,0.993,0.0,0.0,-0.061
2190328082857,2190326082857,2190.328082857,2190.326082857,-0.115,0.062,0.993,0.0,0.0,-0.061
2190338337439,2190336337439,2190.338337439,2190.336337439,-0.115,0.062,0.993,0.0,0.0,-0.122
2190348529897,2190346529897,2190.348529897,2190.346529897,-0.115,0.062,0.993,0.0,0.0,-0.122
2190358923894,2190356923894,2190.358923894,2190.356923894,-0.115,0.062,0.993,0.0,0.0,-0.122
2190369168852,2190367168852,2190.369168852,2190.367168852,-0.115,0.062,0.992,0.0,0.0,-0.122
2190379344685,2190377344685,2190.379344685,2190.377344685,-0.115,0.062,0.992,0.0,0.0,-0.122
2190389555809,2190387555809,2190.389555809,2190.387555809,-0.115,0.062,0.992,0.0,0.0,-0.122
2190399794058,2190397794058,2190.399794058,2190.397794058,-0.115,0.062,0.992,0.0,0.0,-0.061
2190410175514,2190408175514,2190.410175514,2190.408175514,-0.115,0.062,0.992,0.0,0.0,-0.061
2190420377889,2190418377889,2190.420377889,2190.418377889,-0.115,0.062,0.992,0.0,0.0,-0.061
2190430596305,2190428596305,2190.430596305,2190.428596305,-0.115,0.062,0.992,0.0,0.0,-0.122
2190440849429,2190438849429,2190.440849429,2190.438849429,-0.115,0.062,0.992,0.0,0.0,-0.122
2190451034887,2190449034887,2190.451034887,2190.449034887,-0.115,0.062,0.992,0.0,0.0,-0.122
2190461241636,2190459241636,2190.461241636,2190.459241636,-0.115,0.062,0.992,0.0,0.0,-0.122
2190471461219,2190469461219,2190.471461219,2190.469461219,-0.115,0.062,0.992,0.0,0.0,-0.122
2190481812633,2190479812633,2190.481812633,2190.479812633,-0.115,0.062,0.992,0.0,0.0,-0.061
2190492032799,2190490032799,2190.492032799,2190.490032799,-0.115,0.062,0.992,0.0,0.0,-0.122
2190502300507,2190500300507,2190.502300507,2190.500300507,-0.115,0.062,0.992,0.0,0.0,-0.122
2190512466715,2190510466715,2190.512466715,2190.510466715,-0.115,0.062,0.992,0.0,0.0,-0.122
2190522704089,2190520704089,2190.522704089,2190.520704089,-0.115,0.062,0.992,0.0,0.0,-0.122
2190532910839,2190530910839,2190.532910839,2190.530910839,-0.115,0.062,0.992,0.0,0.0,-0.061
2190543286169,2190541286169,2190.543286169,2190.541286169,-0.115,0.062,0.992,0.0,0.0,-0.061
2190553520335,2190551520335,2190.553520335,2190.551520335,-0.115,0.062,0.992,0.0,0.0,-0.061
2190572582851,2190570582851,2190.572582851,2190.570582851,-0.115,0.062,0.992,0.0,0.0,-0.061
2190584418247,2190582418247,2190.584418247,2190.582418247,-0.115,0.062,0.992,0.0,0.0,-0.061
2190594615955,2190592615955,2190.594615955,2190.592615955,-0.115,0.062,0.992,0.0,0.0,-0.061
2190604831746,2190602831746,2190.604831746,2190.602831746,-0.115,0.062,0.992,0.0,0.0,-0.061
2190615072037,2190613072037,2190.615072037,2190.613072037,-0.114,0.062,0.992,0.0,0.0,-0.061
2190625292494,2190623292494,2190.625292494,2190.623292494,-0.114,0.062,0.992,0.0,0.0,-0.061
2190635524035,2190633524035,2190.635524035,2190.633524035,-0.114,0.062,0.992,0.0,0.0,-0.061
2190646004073,2190644004073,2190.646004073,2190.644004073,-0.114,0.062,0.992,0.0,0.0,-0.061
2190656608943,2190654608943,2190.656608943,2190.654608943,-0.114,0.062,0.992,0.0,0.0,-0.061
2190666521113,2190664521113,2190.666521113,2190.664521113,-0.114,0.062,0.992,0.0,0.0,-0.122
2190676667779,2190674667779,2190.676667779,2190.674667779,-0.114,0.062,0.992,0.0,0.0,-0.061
2190686930820,2190684930820,2190.68693082,2190.68493082,-0.114,0.062,0.992,0.0,0.0,-0.122
2190697199402,2190695199402,2190.697199402,2190.695199402,-0.114,0.062,0.992,0.0,0.0,-0.122
2190707354819,2190705354819,2190.707354819,2190.705354819,-0.114,0.062,0.992,0.0,0.0,-0.122
2190717585776,2190715585776,2190.717585776,2190.715585776,-0.114,0.062,0.992,0.0,0.0,-0.122
2190727801859,2190725801859,2190.727801859,2190.725801859,-0.114,0.062,0.992,0.0,0.0,-0.122
2190738015025,2190736015025,2190.738015025,2190.736015025,-0.114,0.062,0.992,0.0,0.0,-0.122
2190748232275,2190746232275,2190.748232275,2190.746232275,-0.113,0.062,0.993,0.0,0.0,-0.122
2190758458566,2190756458566,2190.758458566,2190.756458566,-0.113,0.062,0.993,0.0,0.0,-0.122
2190768668815,2190766668815,2190.768668815,2190.766668815,-0.113,0.062,0.993,0.0,0.0,-0.122
2190779140686,2190777140686,2190.779140686,2190.777140686,-0.113,0.062,0.993,0.0,0.0,-0.122
2190789564433,2190787564433,2190.789564433,2190.787564433,-0.113,0.062,0.993,0.0,0.0,-0.122
2190800038054,2190798038054,2190.800038054,2190.798038054,-0.113,0.062,0.993,0.0,0.0,-0.122
2190810417468,2190808417468,2190.810417468,2190.808417468,-0.113,0.062,0.993,0.0,0.0,-0.122
2190820786383,2190818786383,2190.820786383,2190.818786383,-0.113,0.062,0.993,0.0,0.0,-0.122
2190831165213,2190829165213,2190.831165213,2190.829165213,-0.113,0.062,0.993,0.0,0.0,-0.122
2190841471420,2190839471420,2190.84147142,2190.83947142,-0.113,0.062,0.993,0.0,0.0,-0.122
2190851488005,2190849488005,2190.851488005,2190.849488005,-0.113,0.062,0.993,0.0,0.0,-0.122
2190861737921,2190859737921,2190.861737921,2190.859737921,-0.113,0.062,0.993,0.0,0.0,-0.122
2190871707548,2190869707548,2190.871707548,2190.869707548,-0.113,0.062,0.993,0.0,0.0,-0.122
2190881965047,2190879965047,2190.881965047,2190.879965047,-0.113,0.062,0.993,0.0,0.0,-0.122
2190892201838,2190890201838,2190.892201838,2190.890201838,-0.113,0.062,0.993,0.0,0.0,-0.122
2190902577460,2190900577460,2190.90257746,2190.90057746,-0.113,0.062,0.993,0.0,0.0,0.0
2190912911667,2190910911667,2190.912911667,2190.910911667,-0.113,0.062,0.993,0.0,0.0,-0.122
2190923213790,2190921213790,2190.92321379,2190.92121379,-0.113,0.062,0.993,0.0,0.0,-0.122
2190933613037,2190931613037,2190.933613037,2190.931613037,-0.113,0.062,0.993,0.0,0.0,-0.122
2190943946077,2190941946077,2190.943946077,2190.941946077,-0.113,0.062,0.993,0.0,0.0,-0.122
2190954328991,2190952328991,2190.954328991,2190.952328991,-0.113,0.062,0.993,0.0,0.0,-0.122
2190964757113,2190962757113,2190.964757113,2190.962757113,-0.113,0.062,0.993,0.0,0.0,-0.122
2190975284983,2190973284983,2190.975284983,2190.973284983,-0.113,0.062,0.993,0.0,0.0,-0.122
2190985692397,2190983692397,2190.985692397,2190.983692397,-0.113,0.062,0.993,0.0,0.0,-0.122
2190996066853,2190994066853,2190.996066853,2190.994066853,-0.113,0.062,0.993,0.0,0.0,-0.122
2191006445100,2191004445100,2191.0064451,2191.0044451,-0.113,0.062,0.993,0.0,0.0,-0.122
2191016851639,2191014851639,2191.016851639,2191.014851639,-0.113,0.062,0.993,0.0,0.0,-0.122
2191027394676,2191025394676,2191.027394676,2191.025394676,-0.113,0.062,0.993,0.0,0.0,-0.122
2191037771465,2191035771465,2191.037771465,2191.035771465,-0.113,0.062,0.993,0.0,0.0,-0.122
2191048180629,2191046180629,2191.048180629,2191.046180629,-0.113,0.062,0.993,0.0,0.0,-0.122
2191058577834,2191056577834,2191.058577834,2191.056577834,-0.113,0.062,0.993,0.0,0.0,0.0
2191069055539,2191067055539,2191.069055539,2191.067055539,-0.113,0.062,0.993,0.0,0.0,-0.122
2191082601247,2191080601247,2191.082601247,2191.080601247,-0.113,0.062,0.993,0.0,0.0,-0.122
2191089425080,2191087425080,2191.08942508,2191.08742508,-0.113,0.062,0.993,0.0,0.0,-0.122
2191099412707,2191097412707,2191.099412707,2191.097412707,-0.113,0.062,0.993,0.0,0.0,-0.122
2191109654748,2191107654748,2191.109654748,2191.107654748,-0.113,0.062,0.993,0.0,0.0,-0.122
2191119828831,2191117828831,2191.119828831,2191.117828831,-0.113,0.062,0.993,0.0,0.0,-0.122
2191130058039,2191128058039,2191.130058039,2191.128058039,-0.113,0.062,0.993,0.0,0.0,-0.122
2191140281705,2191138281705,2191.140281705,2191.138281705,-0.113,0.062,0.993,0.0,0.0,-0.122
2191150687952,2191148687952,2191.150687952,2191.148687952,-0.113,0.062,0.993,0.0,0.0,0.0
2191160854452,2191158854452,2191.160854452,2191.158854452,-0.113,0.062,0.993,0.0,0.0,-0.122
2191171097951,2191169097951,2191.171097951,2191.169097951,-0.113,0.062,0.993,0.0,0.0,-0.122
2191181249576,2191179249576,2191.181249576,2191.179249576,-0.113,0.062,0.993,0.0,0.0,-0.122
2191191513783,2191189513783,2191.191513783,2191.189513783,-0.113,0.062,0.993,0.0,0.0,0.0
2191201750282,2191199750282,2191.201750282,2191.199750282,-0.113,0.062,0.993,0.0,0.0,-0.122
2191211953532,2191209953532,2191.211953532,2191.209953532,-0.113,0.062,0.993,0.0,0.0,-0.122
2191222356862,2191220356862,2191.222356862,2191.220356862,-0.113,0.062,0.993,0.0,0.0,-0.122
2191232559820,2191230559820,2191.23255982,2191.23055982,-0.113,0.062,0.993,0.0,0.0,0.0
2191242773861,2191240773861,2191.242773861,2191.240773861,-0.113,0.062,0.993,0.0,0.0,-0.122
2191253109817,2191251109817,2191.253109817,2191.251109817,-0.114,0.062,0.993,0.0,0.0,-0.122
2191263242485,2191261242485,2191.263242485,2191.261242485,-0.114,0.062,0.993,0.0,0.0,-0.122
2191273405485,2191271405485,2191.273405485,2191.271405485,-0.114,0.062,0.993,0.0,0.0,-0.122
2191283654525,2191281654525,2191.283654525,2191.281654525,-0.114,0.062,0.993,0.0,0.0,-0.122
2191293926024,2191291926024,2191.293926024,2191.291926024,-0.114,0.062,0.993,0.0,0.0,-0.122
2191304212398,2191302212398,2191.304212398,2191.302212398,-0.114,0.062,0.993,0.0,0.0,-0.122
2191314354689,2191312354689,2191.314354689,2191.312354689,-0.114,0.062,0.993,0.0,0.0,-0.122
2191324591189,2191322591189,2191.324591189,2191.322591189,-0.114,0.062,0.993,0.0,0.0,0.0
2191334790355,2191332790355,2191.334790355,2191.332790355,-0.114,0.062,0.993,0.0,0.0,-0.122
2191345035604,2191343035604,2191.345035604,2191.343035604,-0.114,0.062,0.993,0.0,0.0,-0.122
2191355058022,2191353058022,2191.355058022,2191.353058022,-0.114,0.062,0.993,0.0,0.0,-0.122
2191365291605,2191363291605,2191.365291605,2191.363291605,-0.114,0.062,0.993,0.0,0.0,-0.122
2191375687060,2191373687060,2191.37568706,2191.37368706,-0.114,0.062,0.993,0.0,0.0,-0.122
2191385889727,2191383889727,2191.385889727,2191.383889727,-0.114,0.062,0.993,0.0,0.0,-0.122
2191404613621,2191402613621,2191.404613621,2191.402613621,-0.114,0.062,0.993,0.0,0.0,-0.122
2191415916733,2191413916733,2191.415916733,2191.413916733,-0.114,0.062,0.993,0.0,0.0,-0.122
2191426103066,2191424103066,2191.426103066,2191.424103066,-0.114,0.062,0.993,0.0,0.0,-0.122
2191436506979,2191434506979,2191.436506979,2191.434506979,-0.114,0.062,0.993,0.0,0.0,-0.122
2191446694771,2191444694771,2191.446694771,2191.444694771,-0.114,0.062,0.993,0.0,0.0,-0.122
2191456966561,2191454966561,2191.456966561,2191.454966561,-0.114,0.062,0.993,0.0,0.0,-0.122
2191467454766,2191465454766,2191.467454766,2191.465454766,-0.114,0.062,0.993,0.0,0.0,-0.122
2191479424035,2191477424035,2191.479424035,2191.477424035,-0.114,0.062,0.993,0.0,0.0,-0.122
2191489541577,2191487541577,2191.489541577,2191.487541577,-0.114,0.062,0.993,0.0,0.0,-0.122
2191500148489,2191498148489,2191.500148489,2191.498148489,-0.114,0.062,0.993,0.0,0.0,-0.122
2191510515653,2191508515653,2191.510515653,2191.508515653,-0.115,0.062,0.993,0.0,0.0,0.0
2191520906442,2191518906442,2191.520906442,2191.518906442,-0.115,0.062,0.993,0.0,0.0,-0.122
2191531317355,2191529317355,2191.531317355,2191.529317355,-0.115,0.062,0.993,0.0,0.0,-0.122
2191541867684,2191539867684,2191.541867684,2191.539867684,-0.115,0.062,0.993,0.0,0.0,-0.122
2191552313014,2191550313014,2191.552313014,2191.550313014,-0.115,0.062,0.993,0.0,0.0,-0.122
2191562683678,2191560683678,2191.562683678,2191.560683678,-0.115,0.062,0.993,0.0,0.0,-0.122
2191573024593,2191571024593,2191.573024593,2191.571024593,-0.115,0.062,0.993,0.0,0.0,-0.122
2191583453298,2191581453298,2191.583453298,2191.581453298,-0.115,0.062,0.993,0.0,0.0,-0.122
2191593851087,2191591851087,2191.593851087,2191.591851087,-0.115,0.062,0.993,0.0,0.0,-0.122
2191604093419,2191602093419,2191.604093419,2191.602093419,-0.115,0.062,0.993,0.0,0.0,-0.122
2191614305710,2191612305710,2191.61430571,2191.61230571,-0.115,0.062,0.993,0.0,0.0,-0.122
2191624682791,2191622682791,2191.624682791,2191.622682791,-0.115,0.062,0.993,0.0,0.0,-0.122
2191635086413,2191633086413,2191.635086413,2191.633086413,-0.115,0.062,0.993,0.0,0.0,-0.122
2191645445702,2191643445702,2191.645445702,2191.643445702,-0.115,0.062,0.993,0.0,0.0,-0.122
2191655828616,2191653828616,2191.655828616,2191.653828616,-0.115,0.062,0.993,0.0,0.0,-0.122
2191666397903,2191664397903,2191.666397903,2191.664397903,-0.115,0.062,0.993,0.0,0.0,-0.122
2191676798900,2191674798900,2191.6767989,2191.6747989,-0.115,0.062,0.993,0.0,0.0,-0.122
2191687225855,2191685225855,2191.687225855,2191.685225855,-0.115,0.062,0.993,0.0,0.0,-0.122
2191697563853,2191695563853,2191.697563853,2191.695563853,-0.115,0.062,0.993,0.0,0.0,0.0
2191707977975,2191705977975,2191.707977975,2191.705977975,-0.115,0.062,0.993,0.0,0.0,-0.122
2191718346306,2191716346306,2191.718346306,2191.716346306,-0.115,0.062,0.993,0.0,0.0,-0.122
2191728729803,2191726729803,2191.728729803,2191.726729803,-0.115,0.062,0.993,0.0,0.0,-0.122
2191739116509,2191737116509,2191.739116509,2191.737116509,-0.115,0.062,0.993,0.0,0.0,-0.122
2191749509340,2191747509340,2191.74950934,2191.74750934,-0.115,0.062,0.993,0.0,0.0,0.0
2191759896337,2191757896337,2191.759896337,2191.757896337,-0.115,0.062,0.993,0.0,0.0,-0.122
2191770403208,2191768403208,2191.770403208,2191.768403208,-0.115,0.062,0.993,0.0,0.0,-0.122
2191780831329,2191778831329,2191.780831329,2191.778831329,-0.115,0.062,0.993,0.0,0.0,-0.122
2191791246326,2191789246326,2191.791246326,2191.789246326,-0.115,0.062,0.993,0.0,0.0,-0.122
2191801617574,2191799617574,2191.801617574,2191.799617574,-0.115,0.062,0.993,0.0,0.0,0.0
2191811830157,2191809830157,2191.811830157,2191.809830157,-0.115,0.062,0.993,0.0,0.0,-0.122
2191822056156,2191820056156,2191.822056156,2191.820056156,-0.115,0.062,0.993,0.0,0.0,-0.122
2191832433528,2191830433528,2191.832433528,2191.830433528,-0.115,0.062,0.993,0.0,0.0,-0.122
2191842823151,2191840823151,2191.842823151,2191.840823151,-0.115,0.062,0.993,0.0,0.0,-0.122
2191853446103,2191851446103,2191.853446103,2191.851446103,-0.115,0.062,0.993,0.0,0.0,-0.122
2191863777393,2191861777393,2191.863777393,2191.861777393,-0.115,0.062,0.993,0.0,0.0,-0.122
2191874176640,2191872176640,2191.87417664,2191.87217664,-0.115,0.062,0.993,0.0,0.0,-0.122
2191884552554,2191882552554,2191.884552554,2191.882552554,-0.115,0.062,0.993,0.0,0.0,-0.122
2191895116883,2191893116883,2191.895116883,2191.893116883,-0.115,0.062,0.993,0.0,0.0,-0.122
2191905493672,2191903493672,2191.905493672,2191.903493672,-0.115,0.062,0.993,0.0,0.0,-0.061
2191915861711,2191913861711,2191.915861711,2191.913861711,-0.115,0.062,0.993,0.0,0.0,-0.061
2191931229147,2191929229147,2191.931229147,2191.929229147,-0.115,0.062,0.993,0.0,0.0,-0.122
2191941146358,2191939146358,2191.941146358,2191.939146358,-0.115,0.062,0.993,0.0,0.0,-0.122
2191951404441,2191949404441,2191.951404441,2191.949404441,-0.115,0.062,0.993,0.0,0.0,-0.122
2191967766323,2191965766323,2191.967766323,2191.965766323,-0.115,0.062,0.993,0.0,0.0,-0.061
2191977838324,2191975838324,2191.977838324,2191.975838324,-0.115,0.062,0.993,0.0,0.0,-0.061
2191988073657,2191986073657,2191.988073657,2191.986073657,-0.115,0.062,0.993,0.0,0.0,-0.061
2191998987397,2191996987397,2191.998987397,2191.996987397,-0.115,0.062,0.993,0.0,0.0,-0.061
2192009375561,2192007375561,2192.009375561,2192.007375561,-0.115,0.062,0.993,0.0,0.0,-0.061
2192019584061,2192017584061,2192.019584061,2192.017584061,-0.114,0.061,0.993,0.0,0.0,0.0
2192029815018,2192027815018,2192.029815018,2192.027815018,-0.114,0.061,0.993,0.0,0.0,-0.061
2192040020601,2192038020601,2192.040020601,2192.038020601,-0.114,0.061,0.993,0.0,0.0,-0.122
2192050226476,2192048226476,2192.050226476,2192.048226476,-0.114,0.061,0.993,0.0,0.0,-0.122
2192060462100,2192058462100,2192.0604621,2192.0584621,-0.114,0.061,0.993,0.0,0.0,-0.122
2192070635891,2192068635891,2192.070635891,2192.068635891,-0.114,0.061,0.993,0.0,0.0,-0.122
2192081067222,2192079067222,2192.081067222,2192.079067222,-0.114,0.061,0.993,0.0,0.0,-0.061
2192091292346,2192089292346,2192.091292346,2192.089292346,-0.114,0.061,0.993,0.0,0.0,-0.061
2192101513095,2192099513095,2192.101513095,2192.099513095,-0.114,0.061,0.993,0.0,0.0,-0.061
2192111715470,2192109715470,2192.11171547,2192.10971547,-0.114,0.061,0.993,0.0,0.0,-0.122
2192121923969,2192119923969,2192.121923969,2192.119923969,-0.114,0.061,0.993,0.0,0.0,-0.122
2192132168927,2192130168927,2192.132168927,2192.130168927,-0.114,0.061,0.993,0.0,0.0,-0.061
2192142354385,2192140354385,2192.142354385,2192.140354385,-0.114,0.061,0.993,0.0,0.0,-0.061
2192152585051,2192150585051,2192.152585051,2192.150585051,-0.114,0.061,0.993,0.0,0.0,-0.061
2192162958340,2192160958340,2192.16295834,2192.16095834,-0.114,0.061,0.993,0.0,0.0,-0.061
2192173213214,2192171213214,2192.173213214,2192.171213214,-0.114,0.061,0.993,0.0,0.0,-0.061
2192183463713,2192181463713,2192.183463713,2192.181463713,-0.114,0.061,0.993,0.0,0.0,-0.061
2192193608338,2192191608338,2192.193608338,2192.191608338,-0.114,0.061,0.993,0.0,0.0,0.0
2192203829962,2192201829962,2192.203829962,2192.201829962,-0.114,0.061,0.993,0.0,0.0,-0.061
2192214054503,2192212054503,2192.214054503,2192.212054503,-0.114,0.061,0.993,0.0,0.0,-0.061
2192224287211,2192222287211,2192.224287211,2192.222287211,-0.114,0.061,0.993,0.0,0.0,-0.061
2192234485210,2192232485210,2192.23448521,2192.23248521,-0.114,0.061,0.993,0.0,0.0,-0.061
2192244720543,2192242720543,2192.244720543,2192.242720543,-0.114,0.061,0.993,0.0,0.0,-0.122
2192255093540,2192253093540,2192.25509354,2192.25309354,-0.114,0.061,0.993,0.0,0.0,-0.122
2192265551703,2192263551703,2192.265551703,2192.263551703,-0.113,0.061,0.993,0.0,0.0,-0.122
2192275761078,2192273761078,2192.275761078,2192.273761078,-0.113,0.061,0.993,0.0,0.0,-0.122
2192286264449,2192284264449,2192.286264449,2192.284264449,-0.113,0.061,0.993,0.0,0.0,-0.122
2192296601863,2192294601863,2192.296601863,2192.294601863,-0.113,0.061,0.993,0.0,0.0,-0.061
2192306272536,2192304272536,2192.306272536,2192.304272536,-0.113,0.061,0.993,0.0,0.0,-0.061
2192316573201,2192314573201,2192.316573201,2192.314573201,-0.113,0.061,0.993,0.0,0.0,-0.122
2192326816409,2192324816409,2192.326816409,2192.324816409,-0.113,0.061,0.993,0.0,0.0,-0.122
2192337024033,2192335024033,2192.337024033,2192.335024033,-0.113,0.061,0.993,0.0,0.0,-0.122
2192347246532,2192345246532,2192.347246532,2192.345246532,-0.113,0.061,0.993,0.0,0.0,-0.122
2192357643155,2192355643155,2192.357643155,2192.355643155,-0.113,0.061,0.993,0.0,0.0,-0.122
2192367851071,2192365851071,2192.367851071,2192.365851071,-0.113,0.061,0.993,0.0,0.0,-0.122
2192377910239,2192375910239,2192.377910239,2192.375910239,-0.113,0.061,0.993,0.0,0.0,-0.122
2192388128655,2192386128655,2192.388128655,2192.386128655,-0.113,0.061,0.993,0.0,0.0,-0.122
2192398172365,2192396172365,2192.398172365,2192.396172365,-0.113,0.062,0.993,0.0,0.0,-0.122
2192408216949,2192406216949,2192.408216949,2192.406216949,-0.113,0.062,0.993,0.0,0.0,-0.122
2192418274659,2192416274659,2192.418274659,2192.416274659,-0.113,0.062,0.993,0.0,0.0,-0.122
2192428476742,2192426476742,2192.428476742,2192.426476742,-0.113,0.062,0.993,0.0,0.0,0.0
2192438537660,2192436537660,2192.43853766,2192.43653766,-0.113,0.062,0.993,0.0,0.0,-0.122
2192448569120,2192446569120,2192.44856912,2192.44656912,-0.113,0.062,0.993,0.0,0.0,-0.122
2192458633246,2192456633246,2192.458633246,2192.456633246,-0.113,0.062,0.993,0.0,0.0,-0.122
2192468839996,2192466839996,2192.468839996,2192.466839996,-0.113,0.062,0.993,0.0,0.0,-0.122
2192478914330,2192476914330,2192.47891433,2192.47691433,-0.113,0.062,0.993,0.0,0.0,-0.122
2192488946957,2192486946957,2192.488946957,2192.486946957,-0.113,0.062,0.993,0.0,0.0,-0.122
2192499031500,2192497031500,2192.4990315,2192.4970315,-0.113,0.062,0.993,0.0,0.0,-0.122
2192509005502,2192507005502,2192.509005502,2192.507005502,-0.113,0.062,0.993,0.0,0.0,-0.122
2192519236168,2192517236168,2192.519236168,2192.517236168,-0.113,0.062,0.993,0.0,0.0,-0.122
2192529269086,2192527269086,2192.529269086,2192.527269086,-0.113,0.062,0.993,0.0,0.0,-0.122
2192539306379,2192537306379,2192.539306379,2192.537306379,-0.113,0.062,0.993,0.0,0.0,-0.122
2192549530920,2192547530920,2192.54953092,2192.54753092,-0.113,0.062,0.993,0.0,0.0,-0.122
2192559576964,2192557576964,2192.559576964,2192.557576964,-0.113,0.062,0.993,0.0,0.0,-0.122
2192569625340,2192567625340,2192.56962534,2192.56762534,-0.113,0.062,0.993,0.0,0.0,-0.122
2192579676050,2192577676050,2192.57967605,2192.57767605,-0.113,0.062,0.993,0.0,0.0,-0.122
2192589889508,2192587889508,2192.589889508,2192.587889508,-0.113,0.062,0.993,0.0,0.0,-0.122
2192599988633,2192597988633,2192.599988633,2192.597988633,-0.113,0.062,0.993,0.0,0.0,-0.122
2192609997635,2192607997635,2192.609997635,2192.607997635,-0.113,0.062,0.993,0.0,0.0,-0.122
2192620083928,2192618083928,2192.620083928,2192.618083928,-0.113,0.062,0.993,0.0,0.0,-0.122
2192630104305,2192628104305,2192.630104305,2192.628104305,-0.113,0.062,0.993,0.0,0.0,-0.122
2192640312804,2192638312804,2192.640312804,2192.638312804,-0.113,0.062,0.993,0.0,0.0,-0.122
2192650372847,2192648372847,2192.650372847,2192.648372847,-0.113,0.062,0.993,0.0,0.0,-0.122
2192660405182,2192658405182,2192.660405182,2192.658405182,-0.113,0.062,0.993,0.0,0.0,0.0
2192670471350,2192668471350,2192.67047135,2192.66847135,-0.113,0.062,0.993,0.0,0.0,-0.122
2192680515352,2192678515352,2192.680515352,2192.678515352,-0.113,0.062,0.993,0.0,0.0,-0.122
2192690743101,2192688743101,2192.690743101,2192.688743101,-0.113,0.062,0.993,0.0,0.0,-0.122
2192700772519,2192698772519,2192.700772519,2192.698772519,-0.113,0.062,0.993,0.0,0.0,-0.122
2192710827021,2192708827021,2192.710827021,2192.708827021,-0.113,0.062,0.993,0.0,0.0,-0.122
2192720866356,2192718866356,2192.720866356,2192.718866356,-0.113,0.062,0.993,0.0,0.0,-0.122
2192731099355,2192729099355,2192.731099355,2192.729099355,-0.113,0.062,0.993,0.0,0.0,-0.122
2192741136940,2192739136940,2192.74113694,2192.73913694,-0.113,0.062,0.993,0.0,0.0,-0.122
2192751180066,2192749180066,2192.751180066,2192.749180066,-0.113,0.062,0.993,0.0,0.0,-0.122
2192761247109,2192759247109,2192.761247109,2192.759247109,-0.113,0.062,0.993,0.0,0.0,-0.122
2192771297527,2192769297527,2192.771297527,2192.769297527,-0.113,0.062,0.993,0.0,0.0,-0.122
2192781504568,2192779504568,2192.781504568,2192.779504568,-0.114,0.062,0.993,0.0,0.0,-0.122
2192791552362,2192789552362,2192.791552362,2192.789552362,-0.114,0.062,0.993,0.0,0.0,-0.122
2192801616488,2192799616488,2192.801616488,2192.799616488,-0.114,0.062,0.993,0.0,0.0,-0.122
2192811821487,2192809821487,2192.811821487,2192.809821487,-0.114,0.062,0.993,0.0,0.0,-0.122
2192821872780,2192819872780,2192.82187278,2192.81987278,-0.114,0.062,0.993,0.0,0.0,-0.122
2192831913282,2192829913282,2192.831913282,2192.829913282,-0.114,0.062,0.993,0.0,0.0,-0.122
2192841981492,2192839981492,2192.841981492,2192.839981492,-0.114,0.062,0.993,0.0,0.0,-0.122
2192852178616,2192850178616,2192.852178616,2192.850178616,-0.114,0.062,0.993,0.0,0.0,-0.122
2192862239826,2192860239826,2192.862239826,2192.860239826,-0.114,0.062,0.993,0.0,0.0,-0.122
2192872278577,2192870278577,2192.872278577,2192.870278577,-0.114,0.062,0.993,0.0,0.0,-0.122
2192882319954,2192880319954,2192.882319954,2192.880319954,-0.114,0.062,0.993,0.0,0.0,0.0
2192892543620,2192890543620,2192.89254362,2192.89054362,-0.114,0.062,0.993,0.0,0.0,-0.122
2192902599580,2192900599580,2192.90259958,2192.90059958,-0.114,0.062,0.993,0.0,0.0,-0.122
2192912640373,2192910640373,2192.912640373,2192.910640373,-0.114,0.062,0.993,0.0,0.0,-0.122
2192922717624,2192920717624,2192.922717624,2192.920717624,-0.114,0.062,0.993,0.0,0.0,-0.122
2192932908040,2192930908040,2192.93290804,2192.93090804,-0.114,0.062,0.993,0.0,0.0,-0.122
2192942983541,2192940983541,2192.942983541,2192.940983541,-0.114,0.062,0.993,0.0,0.0,-0.122
2192953007710,2192951007710,2192.95300771,2192.95100771,-0.114,0.062,0.993,0.0,0.0,-0.122
2192963050545,2192961050545,2192.963050545,2192.961050545,-0.114,0.062,0.993,0.0,0.0,-0.122
2192973065963,2192971065963,2192.973065963,2192.971065963,-0.114,0.062,0.993,0.0,0.0,-0.122
2192983344170,2192981344170,2192.98334417,2192.98134417,-0.114,0.062,0.993,0.0,0.0,-0.122
2192993403047,2192991403047,2192.993403047,2192.991403047,-0.114,0.062,0.993,0.0,0.0,-0.122
2193003456090,2193001456090,2193.00345609,2193.00145609,-0.114,0.062,0.993,0.0,0.0,0.0
2193013458092,2193011458092,2193.013458092,2193.011458092,-0.114,0.062,0.993,0.0,0.0,-0.122
2193023715591,2193021715591,2193.023715591,2193.021715591,-0.114,0.062,0.993,0.0,0.0,-0.122
2193033767467,2193031767467,2193.033767467,2193.031767467,-0.115,0.062,0.993,0.0,0.0,-0.122
2193043806219,2193041806219,2193.043806219,2193.041806219,-0.115,0.062,0.993,0.0,0.0,-0.122
2193054034551,2193052034551,2193.054034551,2193.052034551,-0.115,0.062,0.993,0.0,0.0,-0.122
2193064353008,2193062353008,2193.064353008,2193.062353008,-0.115,0.062,0.993,0.0,0.0,-0.122
2193074240094,2193072240094,2193.074240094,2193.072240094,-0.115,0.062,0.993,0.0,0.0,-0.122
2193084305096,2193082305096,2193.084305096,2193.082305096,-0.115,0.062,0.993,0.0,0.0,-0.122
2193094494345,2193092494345,2193.094494345,2193.092494345,-0.115,0.062,0.993,0.0,0.0,-0.122
2193104532222,2193102532222,2193.104532222,2193.102532222,-0.115,0.062,0.993,0.0,0.0,-0.122
2193114576515,2193112576515,2193.114576515,2193.112576515,-0.115,0.062,0.993,0.0,0.0,-0.122
2193124626642,2193122626642,2193.124626642,2193.122626642,-0.115,0.062,0.993,0.0,0.0,-0.122
2193134861682,2193132861682,2193.134861682,2193.132861682,-0.115,0.062,0.993,0.0,0.0,-0.122
2193144900434,2193142900434,2193.144900434,2193.142900434,-0.115,0.062,0.993,0.0,0.0,-0.122
2193154816395,2193152816395,2193.154816395,2193.152816395,-0.114,0.061,0.993,0.0,0.0,-0.122
2193164863897,2193162863897,2193.164863897,2193.162863897,-0.114,0.061,0.993,0.0,0.0,-0.061
2193175065105,2193173065105,2193.175065105,2193.173065105,-0.114,0.061,0.993,0.0,0.0,-0.061
2193185119023,2193183119023,2193.185119023,2193.183119023,-0.114,0.061,0.993,0.0,0.0,-0.061
2193195166233,2193193166233,2193.195166233,2193.193166233,-0.114,0.061,0.993,0.0,0.0,-0.122
2193205237651,2193203237651,2193.205237651,2193.203237651,-0.114,0.061,0.993,0.0,0.0,-0.122
2193215264152,2193213264152,2193.215264152,2193.213264152,-0.114,0.061,0.993,0.0,0.0,-0.122
2193225490152,2193223490152,2193.225490152,2193.223490152,-0.114,0.061,0.993,0.0,0.0,0.0
2193235542611,2193233542611,2193.235542611,2193.233542611,-0.114,0.061,0.993,0.0,0.0,-0.122
2193245593029,2193243593029,2193.245593029,2193.243593029,-0.114,0.061,0.993,0.0,0.0,-0.122
2193255629448,2193253629448,2193.255629448,2193.253629448,-0.114,0.061,0.993,0.0,0.0,-0.122
2193265856614,2193263856614,2193.265856614,2193.263856614,-0.114,0.061,0.993,0.0,0.0,-0.122
2193275888365,2193273888365,2193.275888365,2193.273888365,-0.114,0.061,0.993,0.0,0.0,-0.122
2193285981366,2193283981366,2193.285981366,2193.283981366,-0.114,0.062,0.993,0.0,0.0,-0.122
2193295989201,2193293989201,2193.295989201,2193.293989201,-0.114,0.062,0.993,0.0,0.0,-0.122
2193306221617,2193304221617,2193.306221617,2193.304221617,-0.114,0.062,0.993,0.0,0.0,-0.122
2193316282244,2193314282244,2193.316282244,2193.314282244,-0.114,0.062,0.993,0.0,0.0,-0.122
2193326322162,2193324322162,2193.326322162,2193.324322162,-0.114,0.062,0.993,0.0,0.0,-0.122
2193336357414,2193334357414,2193.336357414,2193.334357414,-0.114,0.062,0.993,0.0,0.0,0.0
2193346575246,2193344575246,2193.346575246,2193.344575246,-0.114,0.062,0.993,0.0,0.0,-0.122
2193356627706,2193354627706,2193.356627706,2193.354627706,-0.114,0.062,0.993,0.0,0.0,-0.122
2193366909413,2193364909413,2193.366909413,2193.364909413,-0.114,0.062,0.993,0.0,0.0,-0.122
2193376752459,2193374752459,2193.376752459,2193.374752459,-0.114,0.062,0.993,0.0,0.0,-0.122
2193387000916,2193385000916,2193.387000916,2193.385000916,-0.114,0.062,0.993,0.0,0.0,-0.122
2193397010501,2193395010501,2193.397010501,2193.395010501,-0.114,0.062,0.993,0.0,0.0,-0.122
2193407136168,2193405136168,2193.407136168,2193.405136168,-0.114,0.062,0.993,0.0,0.0,-0.122
2193417273502,2193415273502,2193.417273502,2193.415273502,-0.114,0.062,0.993,0.0,0.0,-0.122
2193427316045,2193425316045,2193.427316045,2193.425316045,-0.114,0.062,0.993,0.0,0.0,-0.122
2193437376088,2193435376088,2193.437376088,2193.435376088,-0.114,0.062,0.993,0.0,0.0,-0.122
2193447466756,2193445466756,2193.447466756,2193.445466756,-0.114,0.062,0.993,0.0,0.0,0.0
2193457485674,2193455485674,2193.457485674,2193.455485674,-0.114,0.062,0.993,0.0,0.0,-0.122
2193467514218,2193465514218,2193.467514218,2193.465514218,-0.114,0.062,0.993,0.0,0.0,-0.122
2193477752175,2193475752175,2193.477752175,2193.475752175,-0.114,0.062,0.993,0.0,0.0,-0.122
2193487797635,2193485797635,2193.487797635,2193.485797635,-0.114,0.062,0.993,0.0,0.0,-0.122
2193497866136,2193495866136,2193.497866136,2193.495866136,-0.114,0.062,0.993,0.0,0.0,-0.122
2193507892055,2193505892055,2193.507892055,2193.505892055,-0.114,0.062,0.993,0.0,0.0,-0.122
2193518153637,2193516153637,2193.518153637,2193.516153637,-0.114,0.062,0.993,0.0,0.0,-0.122
2193528212513,2193526212513,2193.528212513,2193.526212513,-0.114,0.062,0.993,0.0,0.0,-0.122
2193538270806,2193536270806,2193.538270806,2193.536270806,-0.114,0.062,0.993,0.0,0.0,-0.122
2193548308391,2193546308391,2193.548308391,2193.546308391,-0.114,0.062,0.993,0.0,0.0,-0.122
2193558526224,2193556526224,2193.558526224,2193.556526224,-0.114,0.062,0.993,0.0,0.0,0.0
2193568574600,2193566574600,2193.5685746,2193.5665746,-0.114,0.062,0.993,0.0,0.0,-0.122
2193578594102,2193576594102,2193.578594102,2193.576594102,-0.113,0.062,0.993,0.0,0.0,-0.122
2193588681561,2193586681561,2193.588681561,2193.586681561,-0.114,0.062,0.993,0.0,0.0,-0.122
2193598904936,2193596904936,2193.598904936,2193.596904936,-0.114,0.062,0.993,0.0,0.0,-0.122
2193609022436,2193607022436,2193.609022436,2193.607022436,-0.113,0.062,0.993,0.0,0.0,-0.122
2193619017730,2193617017730,2193.61901773,2193.61701773,-0.113,0.062,0.993,0.0,0.0,-0.122
2193629094398,2193627094398,2193.629094398,2193.627094398,-0.113,0.062,0.993,0.0,0.0,-0.122
2193639270814,2193637270814,2193.639270814,2193.637270814,-0.114,0.062,0.993,0.0,0.0,-0.122
2193649319483,2193647319483,2193.649319483,2193.647319483,-0.114,0.062,0.993,0.0,0.0,-0.122
2193659380984,2193657380984,2193.659380984,2193.657380984,-0.113,0.062,0.993,0.0,0.0,0.0
2193669585108,2193667585108,2193.669585108,2193.667585108,-0.113,0.062,0.993,0.0,0.0,-0.122
2193679644860,2193677644860,2193.67964486,2193.67764486,-0.113,0.062,0.993,0.0,0.0,-0.122
2193689694111,2193687694111,2193.689694111,2193.687694111,-0.113,0.062,0.993,0.0,0.0,-0.122
2193699909611,2193697909611,2193.699909611,2193.697909611,-0.113,0.062,0.993,0.0,0.0,-0.122
2193710013986,2193708013986,2193.710013986,2193.708013986,-0.113,0.062,0.993,0.0,0.0,-0.122
2193720013363,2193718013363,2193.720013363,2193.718013363,-0.113,0.062,0.993,0.0,0.0,-0.122
2193730216905,2193728216905,2193.730216905,2193.728216905,-0.113,0.062,0.993,0.0,0.0,-0.122
2193740268198,2193738268198,2193.740268198,2193.738268198,-0.114,0.062,0.993,0.0,0.0,-0.122
2193750312199,2193748312199,2193.750312199,2193.748312199,-0.114,0.062,0.993,0.0,0.0,-0.122
2193760382742,2193758382742,2193.760382742,2193.758382742,-0.113,0.062,0.993,0.0,0.0,0.0
2193770603491,2193768603491,2193.770603491,2193.768603491,-0.114,0.062,0.993,0.0,0.0,-0.122
2193780641660,2193778641660,2193.78064166,2193.77864166,-0.113,0.062,0.993,0.0,0.0,-0.122
2193790687119,2193788687119,2193.790687119,2193.788687119,-0.114,0.062,0.993,0.0,0.0,-0.122
2193800921285,2193798921285,2193.800921285,2193.798921285,-0.114,0.062,0.993,0.0,0.0,-0.122
2193811026828,2193809026828,2193.811026828,2193.809026828,-0.114,0.062,0.993,0.0,0.0,-0.122
2193821034955,2193819034955,2193.821034955,2193.819034955,-0.114,0.062,0.993,0.0,0.0,-0.122
2193831031123,2193829031123,2193.831031123,2193.829031123,-0.114,0.062,0.993,0.0,0.0,-0.122
2193841252456,2193839252456,2193.841252456,2193.839252456,-0.114,0.062,0.993,0.0,0.0,-0.122
2193851296749,2193849296749,2193.851296749,2193.849296749,-0.114,0.062,0.993,0.0,0.0,-0.122
2193861350667,2193859350667,2193.861350667,2193.859350667,-0.114,0.062,0.993,0.0,0.0,-0.122
2193871406919,2193869406919,2193.871406919,2193.869406919,-0.114,0.062,0.993,0.0,0.0,0.0
2193881459670,2193879459670,2193.88145967,2193.87945967,-0.114,0.062,0.993,0.0,0.0,-0.122
2193891675170,2193889675170,2193.89167517,2193.88967517,-0.114,0.062,0.993,0.0,0.0,-0.122
2193901734046,2193899734046,2193.901734046,2193.899734046,-0.114,0.062,0.993,0.0,0.0,-0.122
2193911972003,2193909972003,2193.911972003,2193.909972003,-0.114,0.062,0.993,0.0,0.0,-0.122
2193921990339,2193919990339,2193.921990339,2193.919990339,-0.114,0.062,0.993,0.0,0.0,-0.122
2193932040173,2193930040173,2193.932040173,2193.930040173,-0.114,0.062,0.993,0.0,0.0,-0.122
2193942098466,2193940098466,2193.942098466,2193.940098466,-0.114,0.062,0.993,0.0,0.0,-0.122
2193952232592,2193950232592,2193.952232592,2193.950232592,-0.114,0.062,0.993,0.0,0.0,-0.122
2193962208927,2193960208927,2193.962208927,2193.960208927,-0.114,0.062,0.993,0.0,0.0,-0.122
2193972415094,2193970415094,2193.972415094,2193.970415094,-0.114,0.062,0.993,0.0,0.0,-0.122
2193982471345,2193980471345,2193.982471345,2193.980471345,-0.114,0.062,0.993,0.0,0.0,-0.122
2193992518846,2193990518846,2193.992518846,2193.990518846,-0.114,0.062,0.993,0.0,0.0,-0.122
2194002561681,2194000561681,2194.002561681,2194.000561681,-0.114,0.062,0.993,0.0,0.0,-0.122
2194012789722,2194010789722,2194.012789722,2194.010789722,-0.114,0.062,0.993,0.0,0.0,-0.122
2194022858515,2194020858515,2194.022858515,2194.020858515,-0.114,0.062,0.993,0.0,0.0,-0.122
2194032882684,2194030882684,2194.032882684,2194.030882684,-0.114,0.062,0.993,0.0,0.0,-0.122
2194043462178,2194041462178,2194.043462178,2194.041462178,-0.114,0.061,0.993,0.0,0.0,-0.122
2194053483722,2194051483722,2194.053483722,2194.051483722,-0.114,0.061,0.993,0.0,0.0,-0.122
2194063688138,2194061688138,2194.063688138,2194.061688138,-0.114,0.061,0.993,0.0,0.0,-0.122
2194073599433,2194071599433,2194.073599433,2194.071599433,-0.114,0.061,0.993,0.0,0.0,0.0
2194083704684,2194081704684,2194.083704684,2194.081704684,-0.114,0.061,0.993,0.0,0.0,-0.122
2194093870017,2194091870017,2194.093870017,2194.091870017,-0.114,0.061,0.993,0.0,0.0,-0.122
2194104112349,2194102112349,2194.104112349,2194.102112349,-0.114,0.061,0.993,0.0,0.0,-0.122
2194114329599,2194112329599,2194.114329599,2194.112329599,-0.114,0.061,0.993,0.0,0.0,-0.122
2194124208519,2194122208519,2194.124208519,2194.122208519,-0.114,0.061,0.993,0.0,0.0,-0.122
2194134283145,2194132283145,2194.134283145,2194.132283145,-0.114,0.061,0.993,0.0,0.0,-0.122
2194144494270,2194142494270,2194.14449427,2194.14249427,-0.114,0.061,0.993,0.0,0.0,-0.122
2194154694019,2194152694019,2194.154694019,2194.152694019,-0.114,0.061,0.993,0.0,0.0,-0.122
2194164607939,2194162607939,2194.164607939,2194.162607939,-0.114,0.061,0.993,0.0,0.0,-0.122
2194174635024,2194172635024,2194.174635024,2194.172635024,-0.114,0.061,0.993,0.0,0.0,0.0
2194184868607,2194182868607,2194.184868607,2194.182868607,-0.114,0.061,0.993,0.0,0.0,-0.122
2194195060773,2194193060773,2194.195060773,2194.193060773,-0.114,0.061,0.993,0.0,0.0,-0.122
2194205123149,2194203123149,2194.205123149,2194.203123149,-0.114,0.061,0.993,0.0,0.0,-0.122
2194214962987,2194212962987,2194.214962987,2194.212962987,-0.114,0.061,0.993,0.0,0.0,-0.122
2194224880115,2194222880115,2194.224880115,2194.222880115,-0.114,0.061,0.993,0.0,0.0,-0.122
2194235153655,2194233153655,2194.235153655,2194.233153655,-0.114,0.061,0.993,0.0,0.0,-0.122
2194245139616,2194243139616,2194.245139616,2194.243139616,-0.114,0.061,0.993,0.0,0.0,-0.061
2194255187992,2194253187992,2194.255187992,2194.253187992,-0.114,0.061,0.993,0.0,0.0,-0.061
2194265397075,2194263397075,2194.265397075,2194.263397075,-0.114,0.061,0.993,0.0,0.0,-0.061
2194275394410,2194273394410,2194.27539441,2194.27339441,-0.114,0.061,0.993,0.0,0.0,0.0
2194285514536,2194283514536,2194.285514536,2194.283514536,-0.114,0.061,0.993,0.0,0.0,-0.061
2194295532288,2194293532288,2194.295532288,2194.293532288,-0.114,0.061,0.993,0.0,0.0,-0.061
2194305759745,2194303759745,2194.305759745,2194.303759745,-0.114,0.061,0.993,0.0,0.0,-0.122
2194315803164,2194313803164,2194.315803164,2194.313803164,-0.114,0.061,0.993,0.0,0.0,-0.122
2194325848623,2194323848623,2194.325848623,2194.323848623,-0.114,0.061,0.993,0.0,0.0,-0.061
2194335892625,2194333892625,2194.335892625,2194.333892625,-0.114,0.061,0.993,0.0,0.0,-0.061
2194346133791,2194344133791,2194.346133791,2194.344133791,-0.114,0.061,0.993,0.0,0.0,-0.061
2194356167292,2194354167292,2194.356167292,2194.354167292,-0.114,0.061,0.993,0.0,0.0,-0.061
2194366212460,2194364212460,2194.36621246,2194.36421246,-0.114,0.061,0.993,0.0,0.0,-0.061
2194376301086,2194374301086,2194.376301086,2194.374301086,-0.114,0.061,0.993,0.0,0.0,-0.061
2194386500544,2194384500544,2194.386500544,2194.384500544,-0.114,0.061,0.993,0.0,0.0,0.0
2194396536671,2194394536671,2194.396536671,2194.394536671,-0.114,0.061,0.993,0.0,0.0,-0.061
2194406586506,2194404586506,2194.406586506,2194.404586506,-0.114,0.061,0.993,0.0,0.0,-0.061
2194416633132,2194414633132,2194.416633132,2194.414633132,-0.114,0.061,0.993,0.0,0.0,-0.061
2194426855923,2194424855923,2194.426855923,2194.424855923,-0.114,0.061,0.993,0.0,0.0,-0.061
2194436907800,2194434907800,2194.4369078,2194.4349078,-0.114,0.061,0.993,0.0,0.0,-0.061
2194447089174,2194445089174,2194.447089174,2194.445089174,-0.114,0.061,0.993,0.0,0.0,-0.061
2194457173425,2194455173425,2194.457173425,2194.455173425,-0.114,0.061,0.993,0.0,0.0,-0.061
2194467229677,2194465229677,2194.467229677,2194.465229677,-0.114,0.061,0.993,0.0,0.0,-0.061
2194477441093,2194475441093,2194.477441093,2194.475441093,-0.114,0.061,0.993,0.0,0.0,-0.061
2194487530594,2194485530594,2194.487530594,2194.485530594,-0.114,0.061,0.993,0.0,0.0,0.0
2194497542512,2194495542512,2194.497542512,2194.495542512,-0.114,0.061,0.993,0.0,0.0,-0.061
2194507592639,2194505592639,2194.507592639,2194.505592639,-0.114,0.061,0.993,0.0,0.0,-0.061
2194517812513,2194515812513,2194.517812513,2194.515812513,-0.114,0.061,0.993,0.0,0.0,-0.061
2194527867598,2194525867598,2194.527867598,2194.525867598,-0.114,0.061,0.993,0.0,0.0,-0.061
2194537904016,2194535904016,2194.537904016,2194.535904016,-0.114,0.061,0.993,0.0,0.0,-0.061
2194548130307,2194546130307,2194.548130307,2194.546130307,-0.114,0.061,0.993,0.0,0.0,-0.061
2194558173142,2194556173142,2194.558173142,2194.556173142,-0.114,0.062,0.993,0.0,0.0,-0.061
2194568224143,2194566224143,2194.568224143,2194.566224143,-0.114,0.062,0.993,0.0,0.0,-0.061
2194578287978,2194576287978,2194.578287978,2194.576287978,-0.114,0.062,0.993,0.0,0.0,-0.061
2194588331980,2194586331980,2194.58833198,2194.58633198,-0.114,0.062,0.993,0.0,0.0,-0.061
2194598539604,2194596539604,2194.598539604,2194.596539604,-0.114,0.062,0.993,0.0,0.0,0.0
2194608608105,2194606608105,2194.608608105,2194.606608105,-0.114,0.062,0.993,0.0,0.0,-0.122
2194618641899,2194616641899,2194.618641899,2194.616641899,-0.114,0.062,0.993,0.0,0.0,-0.122
2194628685608,2194626685608,2194.628685608,2194.626685608,-0.114,0.062,0.993,0.0,0.0,-0.122
2194638913358,2194636913358,2194.638913358,2194.636913358,-0.114,0.062,0.993,0.0,0.0,-0.122
2194649001692,2194647001692,2194.649001692,2194.647001692,-0.114,0.062,0.993,0.0,0.0,-0.122
2194659176942,2194657176942,2194.659176942,2194.657176942,-0.114,0.062,0.993,0.0,0.0,-0.122
2194669222693,2194667222693,2194.669222693,2194.667222693,-0.114,0.062,0.993,0.0,0.0,-0.122
2194679352152,2194677352152,2194.679352152,2194.677352152,-0.114,0.062,0.993,0.0,0.0,-0.122
2194689508152,2194687508152,2194.689508152,2194.687508152,-0.114,0.062,0.993,0.0,0.0,-0.122
2194699539029,2194697539029,2194.699539029,2194.697539029,-0.114,0.062,0.993,0.0,0.0,0.0
2194709549198,2194707549198,2194.709549198,2194.707549198,-0.114,0.062,0.993,0.0,0.0,-0.122
2194719644532,2194717644532,2194.719644532,2194.717644532,-0.114,0.062,0.993,0.0,0.0,-0.122
2194729683867,2194727683867,2194.729683867,2194.727683867,-0.114,0.062,0.993,0.0,0.0,-0.122
2194739921533,2194737921533,2194.739921533,2194.737921533,-0.114,0.062,0.993,0.0,0.0,-0.122
2194750009284,2194748009284,2194.750009284,2194.748009284,-0.114,0.062,0.993,0.0,0.0,-0.122
2194760012452,2194758012452,2194.760012452,2194.758012452,-0.114,0.062,0.993,0.0,0.0,-0.122
2194770055287,2194768055287,2194.770055287,2194.768055287,-0.114,0.062,0.993,0.0,0.0,-0.122
2194780269037,2194778269037,2194.780269037,2194.778269037,-0.114,0.062,0.993,0.0,0.0,-0.122
2194790317705,2194788317705,2194.790317705,2194.788317705,-0.114,0.062,0.993,0.0,0.0,-0.122
2194800371331,2194798371331,2194.800371331,2194.798371331,-0.114,0.062,0.993,0.0,0.0,-0.122
2194810419124,2194808419124,2194.810419124,2194.808419124,-0.114,0.062,0.993,0.0,0.0,0.0
2194820627915,2194818627915,2194.820627915,2194.818627915,-0.114,0.062,0.993,0.0,0.0,-0.122
2194830688542,2194828688542,2194.830688542,2194.828688542,-0.114,0.062,0.993,0.0,0.0,-0.122
2194840745376,2194838745376,2194.840745376,2194.838745376,-0.114,0.062,0.993,0.0,0.0,-0.122
2194850776545,2194848776545,2194.850776545,2194.848776545,-0.114,0.062,0.993,0.0,0.0,-0.122
2194861001669,2194859001669,2194.861001669,2194.859001669,-0.114,0.062,0.993,0.0,0.0,-0.122
2194871051795,2194869051795,2194.871051795,2194.869051795,-0.114,0.062,0.993,0.0,0.0,-0.122
2194881113297,2194879113297,2194.881113297,2194.879113297,-0.114,0.062,0.993,0.0,0.0,-0.122
2194891139798,2194889139798,2194.891139798,2194.889139798,-0.114,0.062,0.993,0.0,0.0,-0.122
2194901194883,2194899194883,2194.901194883,2194.899194883,-0.114,0.062,0.993,0.0,0.0,-0.122
2194911496131,2194909496131,2194.911496131,2194.909496131,-0.114,0.062,0.993,0.0,0.0,-0.122
2194921458176,2194919458176,2194.921458176,2194.919458176,-0.114,0.062,0.993,0.0,0.0,-0.122
2194931671342,2194929671342,2194.931671342,2194.929671342,-0.114,0.062,0.993,0.0,0.0,-0.122
2194941734593,2194939734593,2194.941734593,2194.939734593,-0.114,0.062,0.993,0.0,0.0,-0.122
2194951826136,2194949826136,2194.951826136,2194.949826136,-0.114,0.062,0.993,0.0,0.0,-0.122
2194962062051,2194960062051,2194.962062051,2194.960062051,-0.114,0.062,0.993,0.0,0.0,-0.122
2194972043345,2194970043345,2194.972043345,2194.970043345,-0.114,0.062,0.993,0.0,0.0,-0.122
2194982119138,2194980119138,2194.982119138,2194.980119138,-0.114,0.062,0.993,0.0,0.0,-0.122
2194992146807,2194990146807,2194.992146807,2194.990146807,-0.114,0.062,0.993,0.0,0.0,-0.122
2195002196641,2195000196641,2195.002196641,2195.000196641,-0.114,0.062,0.993,0.0,0.0,-0.122
2195012417682,2195010417682,2195.012417682,2195.010417682,-0.114,0.062,0.993,0.0,0.0,-0.122
2195022554724,2195020554724,2195.022554724,2195.020554724,-0.114,0.062,0.993,0.0,0.0,-0.122
2195032682142,2195030682142,2195.032682142,2195.030682142,-0.114,0.062,0.993,0.0,0.0,-0.122
2195042793226,2195040793226,2195.042793226,2195.040793226,-0.114,0.062,0.993,0.0,0.0,-0.122
2195052776270,2195050776270,2195.05277627,2195.05077627,-0.114,0.062,0.993,0.0,0.0,-0.122
2195062998769,2195060998769,2195.062998769,2195.060998769,-0.114,0.062,0.993,0.0,0.0,-0.122
2195073045979,2195071045979,2195.073045979,2195.071045979,-0.114,0.062,0.993,0.0,0.0,-0.122
2195083123813,2195081123813,2195.083123813,2195.081123813,-0.114,0.062,0.993,0.0,0.0,-0.122
2195093149148,2195091149148,2195.093149148,2195.091149148,-0.114,0.062,0.993,0.0,0.0,-0.122
2195103332856,2195101332856,2195.103332856,2195.101332856,-0.114,0.062,0.993,0.0,0.0,-0.122
2195113493523,2195111493523,2195.113493523,2195.111493523,-0.114,0.062,0.993,0.0,0.0,-0.122
2195123454109,2195121454109,2195.123454109,2195.121454109,-0.114,0.062,0.993,0.0,0.0,0.0
2195133498694,2195131498694,2195.133498694,2195.131498694,-0.114,0.062,0.993,0.0,0.0,-0.122
2195143544154,2195141544154,2195.143544154,2195.141544154,-0.114,0.062,0.993,0.0,0.0,-0.122
2195153757611,2195151757611,2195.153757611,2195.151757611,-0.114,0.062,0.993,0.0,0.0,-0.122
2195163808029,2195161808029,2195.163808029,2195.161808029,-0.114,0.062,0.993,0.0,0.0,-0.122
2195173857281,2195171857281,2195.173857281,2195.171857281,-0.114,0.062,0.993,0.0,0.0,-0.122
2195183897782,2195181897782,2195.183897782,2195.181897782,-0.114,0.062,0.993,0.0,0.0,-0.122
2195194126115,2195192126115,2195.194126115,2195.192126115,-0.114,0.061,0.993,0.0,0.0,-0.122
2195204173033,2195202173033,2195.204173033,2195.202173033,-0.114,0.061,0.993,0.0,0.0,-0.122
2195214209451,2195212209451,2195.214209451,2195.212209451,-0.114,0.061,0.993,0.0,0.0,-0.122
2195224442451,2195222442451,2195.224442451,2195.222442451,-0.114,0.061,0.993,0.0,0.0,-0.122
2195234489952,2195232489952,2195.234489952,2195.232489952,-0.114,0.061,0.993,0.0,0.0,0.0
2195244529579,2195242529579,2195.244529579,2195.242529579,-0.114,0.061,0.993,0.0,0.0,-0.122
2195254577080,2195252577080,2195.25457708,2195.25257708,-0.114,0.061,0.993,0.0,0.0,-0.122
2195264780330,2195262780330,2195.26478033,2195.26278033,-0.114,0.061,0.993,0.0,0.0,-0.122
2195274837164,2195272837164,2195.274837164,2195.272837164,-0.114,0.061,0.993,0.0,0.0,-0.122
2195284884374,2195282884374,2195.284884374,2195.282884374,-0.114,0.061,0.993,0.0,0.0,-0.122
2195294991958,2195292991958,2195.294991958,2195.292991958,-0.114,0.061,0.993,0.0,0.0,-0.122
2195305156125,2195303156125,2195.305156125,2195.303156125,-0.114,0.061,0.993,0.0,0.0,-0.122
2195315200127,2195313200127,2195.315200127,2195.313200127,-0.114,0.061,0.993,0.0,0.0,-0.122
2195325249670,2195323249670,2195.32524967,2195.32324967,-0.114,0.061,0.993,0.0,0.0,-0.122
2195335295129,2195333295129,2195.335295129,2195.333295129,-0.114,0.061,0.993,0.0,0.0,-0.122
2195345506837,2195343506837,2195.345506837,2195.343506837,-0.114,0.061,0.993,0.0,0.0,0.0
2195355608005,2195353608005,2195.355608005,2195.353608005,-0.114,0.061,0.993,0.0,0.0,-0.122
2195365641215,2195363641215,2195.365641215,2195.363641215,-0.114,0.061,0.993,0.0,0.0,-0.122
2195375658967,2195373658967,2195.375658967,2195.373658967,-0.114,0.061,0.993,0.0,0.0,-0.122
2195385702676,2195383702676,2195.385702676,2195.383702676,-0.114,0.061,0.993,0.0,0.0,-0.122
2195395915259,2195393915259,2195.395915259,2195.393915259,-0.114,0.061,0.993,0.0,0.0,-0.122
2195405988427,2195403988427,2195.405988427,2195.403988427,-0.114,0.061,0.993,0.0,0.0,-0.122
2195416011429,2195414011429,2195.416011429,2195.414011429,-0.114,0.061,0.993,0.0,0.0,-0.061
2195426243845,2195424243845,2195.426243845,2195.424243845,-0.114,0.061,0.993,0.0,0.0,-0.061
2195436281138,2195434281138,2195.436281138,2195.434281138,-0.114,0.061,0.993,0.0,0.0,-0.061
2195446322514,2195444322514,2195.446322514,2195.444322514,-0.114,0.061,0.993,0.0,0.0,-0.061
2195456374974,2195454374974,2195.456374974,2195.454374974,-0.114,0.061,0.993,0.0,0.0,0.0
2195466589015,2195464589015,2195.466589015,2195.464589015,-0.114,0.061,0.993,0.0,0.0,-0.061
2195476656642,2195474656642,2195.476656642,2195.474656642,-0.114,0.061,0.993,0.0,0.0,-0.061
2195486655144,2195484655144,2195.486655144,2195.484655144,-0.114,0.061,0.993,0.0,0.0,-0.061
2195496904184,2195494904184,2195.496904184,2195.494904184,-0.114,0.061,0.993,0.0,0.0,-0.061
2195506992810,2195504992810,2195.50699281,2195.50499281,-0.114,0.061,0.993,0.0,0.0,-0.061
2195517008520,2195515008520,2195.51700852,2195.51500852,-0.114,0.061,0.993,0.0,0.0,-0.061
2195527049605,2195525049605,2195.527049605,2195.525049605,-0.114,0.061,0.993,0.0,0.0,-0.061
2195537275896,2195535275896,2195.537275896,2195.535275896,-0.114,0.061,0.993,0.0,0.0,-0.061
2195547403022,2195545403022,2195.547403022,2195.545403022,-0.114,0.061,0.993,0.0,0.0,-0.061
2195557326566,2195555326566,2195.557326566,2195.555326566,-0.114,0.061,0.993,0.0,0.0,-0.061
2195567411109,2195565411109,2195.567411109,2195.565411109,-0.114,0.061,0.993,0.0,0.0,0.0
2195577459486,2195575459486,2195.577459486,2195.575459486,-0.114,0.061,0.993,0.0,0.0,-0.061
2195587675860,2195585675860,2195.58767586,2195.58567586,-0.114,0.061,0.993,0.0,0.0,-0.061
2195597728320,2195595728320,2195.59772832,2195.59572832,-0.114,0.061,0.993,0.0,0.0,-0.061
2195607765030,2195605765030,2195.60776503,2195.60576503,-0.114,0.061,0.993,0.0,0.0,-0.061
2195617997154,2195615997154,2195.617997154,2195.615997154,-0.114,0.061,0.993,0.0,0.0,-0.061
2195628028322,2195626028322,2195.628028322,2195.626028322,-0.114,0.061,0.993,0.0,0.0,-0.061
2195638106157,2195636106157,2195.638106157,2195.636106157,-0.114,0.061,0.993,0.0,0.0,-0.061
2195648139950,2195646139950,2195.64813995,2195.64613995,-0.114,0.061,0.993,0.0,0.0,-0.061
2195658371199,2195656371199,2195.658371199,2195.656371199,-0.114,0.061,0.993,0.0,0.0,-0.061
2195668416076,2195666416076,2195.668416076,2195.666416076,-0.114,0.061,0.993,0.0,0.0,-0.061
2195678455994,2195676455994,2195.678455994,2195.676455994,-0.114,0.061,0.993,0.0,0.0,0.0
2195688504954,2195686504954,2195.688504954,2195.686504954,-0.114,0.061,0.993,0.0,0.0,-0.061
2195698730078,2195696730078,2195.698730078,2195.696730078,-0.114,0.062,0.993,0.0,0.0,-0.122
2195708765913,2195706765913,2195.708765913,2195.706765913,-0.114,0.062,0.993,0.0,0.0,-0.122
2195718983746,2195716983746,2195.718983746,2195.716983746,-0.114,0.062,0.993,0.0,0.0,-0.122
2195728864999,2195726864999,2195.728864999,2195.726864999,-0.114,0.062,0.993,0.0,0.0,-0.061
2195739105582,2195737105582,2195.739105582,2195.737105582,-0.114,0.062,0.993,0.0,0.0,-0.122
2195749130625,2195747130625,2195.749130625,2195.747130625,-0.114,0.062,0.993,0.0,0.0,-0.122
2195759178126,2195757178126,2195.759178126,2195.757178126,-0.114,0.062,0.993,0.0,0.0,-0.122
2195769237586,2195767237586,2195.769237586,2195.767237586,-0.114,0.062,0.993,0.0,0.0,-0.061
2195779443461,2195777443461,2195.779443461,2195.777443461,-0.114,0.062,0.993,0.0,0.0,-0.061
2195789495045,2195787495045,2195.789495045,2195.787495045,-0.114,0.062,0.993,0.0,0.0,0.0
2195799537297,2195797537297,2195.799537297,2195.797537297,-0.114,0.062,0.993,0.0,0.0,-0.061
2195809791879,2195807791879,2195.809791879,2195.807791879,-0.114,0.062,0.993,0.0,0.0,-0.061
2195819814298,2195817814298,2195.819814298,2195.817814298,-0.114,0.062,0.993,0.0,0.0,-0.061
2195829874049,2195827874049,2195.829874049,2195.827874049,-0.114,0.062,0.993,0.0,0.0,-0.061
2195839996216,2195837996216,2195.839996216,2195.837996216,-0.114,0.062,0.993,0.0,0.0,-0.122
2195850130925,2195848130925,2195.850130925,2195.848130925,-0.114,0.062,0.993,0.0,0.0,-0.122
2195860180468,2195858180468,2195.860180468,2195.858180468,-0.114,0.062,0.993,0.0,0.0,-0.122
2195870396259,2195868396259,2195.870396259,2195.868396259,-0.114,0.062,0.993,0.0,0.0,-0.122
2195880517551,2195878517551,2195.880517551,2195.878517551,-0.114,0.062,0.993,0.0,0.0,-0.122
2195890488345,2195888488345,2195.890488345,2195.888488345,-0.114,0.062,0.993,0.0,0.0,-0.122
2195900607013,2195898607013,2195.900607013,2195.898607013,-0.114,0.062,0.993,0.0,0.0,-0.122
2195910748430,2195908748430,2195.91074843,2195.90874843,-0.114,0.062,0.993,0.0,0.0,-0.122
2195920881097,2195918881097,2195.920881097,2195.918881097,-0.114,0.062,0.993,0.0,0.0,-0.122
2195930849558,2195928849558,2195.930849558,2195.928849558,-0.114,0.062,0.993,0.0,0.0,-0.061
2195940885976,2195938885976,2195.940885976,2195.938885976,-0.114,0.062,0.993,0.0,0.0,-0.061
2195951108475,2195949108475,2195.951108475,2195.949108475,-0.114,0.062,0.993,0.0,0.0,-0.122
2195961153935,2195959153935,2195.961153935,2195.959153935,-0.114,0.062,0.993,0.0,0.0,-0.122
2195971190353,2195969190353,2195.971190353,2195.969190353,-0.114,0.062,0.993,0.0,0.0,-0.122
2195981268771,2195979268771,2195.981268771,2195.979268771,-0.114,0.062,0.993,0.0,0.0,-0.122
2195991477270,2195989477270,2195.99147727,2195.98947727,-0.114,0.062,0.993,0.0,0.0,-0.122
2196001509314,2195999509314,2196.001509314,2195.999509314,-0.114,0.062,0.993,0.0,0.0,0.0
2196011550982,2196009550982,2196.011550982,2196.009550982,-0.114,0.062,0.993,0.0,0.0,-0.122
2196021618608,2196019618608,2196.021618608,2196.019618608,-0.114,0.062,0.993,0.0,0.0,-0.122
2196031657360,2196029657360,2196.03165736,2196.02965736,-0.114,0.062,0.993,0.0,0.0,-0.122
2196042238605,2196040238605,2196.042238605,2196.040238605,-0.114,0.062,0.993,0.0,0.0,-0.122
2196052316439,2196050316439,2196.052316439,2196.050316439,-0.114,0.062,0.993,0.0,0.0,-0.122
2196062167943,2196060167943,2196.062167943,2196.060167943,-0.114,0.062,0.993,0.0,0.0,-0.122
2196072548524,2196070548524,2196.072548524,2196.070548524,-0.114,0.062,0.993,0.0,0.0,-0.122
2196082905188,2196080905188,2196.082905188,2196.080905188,-0.114,0.062,0.993,0.0,0.0,-0.122
2196092455112,2196090455112,2196.092455112,2196.090455112,-0.114,0.062,0.993,0.0,0.0,-0.122
2196102617529,2196100617529,2196.102617529,2196.100617529,-0.114,0.062,0.993,0.0,0.0,-0.122
2196113759642,2196111759642,2196.113759642,2196.111759642,-0.114,0.062,0.993,0.0,0.0,-0.122
2196124359678,2196122359678,2196.124359678,2196.122359678,-0.114,0.062,0.993,0.0,0.0,-0.122
2196134220224,2196132220224,2196.134220224,2196.132220224,-0.114,0.062,0.993,0.0,0.0,-0.122
2196144272017,2196142272017,2196.144272017,2196.142272017,-0.114,0.062,0.993,0.0,0.0,-0.122
2196154272269,2196152272269,2196.154272269,2196.152272269,-0.114,0.062,0.993,0.0,0.0,-0.122
2196164492727,2196162492727,2196.164492727,2196.162492727,-0.114,0.062,0.993,0.0,0.0,-0.122
2196174532645,2196172532645,2196.174532645,2196.172532645,-0.114,0.062,0.993,0.0,0.0,-0.122
2196184602896,2196182602896,2196.184602896,2196.182602896,-0.114,0.062,0.993,0.0,0.0,-0.122
2196194718938,2196192718938,2196.194718938,2196.192718938,-0.114,0.062,0.993,0.0,0.0,-0.122
2196204859480,2196202859480,2196.20485948,2196.20285948,-0.114,0.062,0.993,0.0,0.0,-0.122
2196214906399,2196212906399,2196.214906399,2196.212906399,-0.114,0.062,0.993,0.0,0.0,-0.122
2196224988316,2196222988316,2196.224988316,2196.222988316,-0.114,0.062,0.993,0.0,0.0,-0.122
2196235005485,2196233005485,2196.235005485,2196.233005485,-0.114,0.062,0.993,0.0,0.0,-0.122
2196245250442,2196243250442,2196.245250442,2196.243250442,-0.114,0.062,0.993,0.0,0.0,-0.122
2196255270527,2196253270527,2196.255270527,2196.253270527,-0.114,0.062,0.993,0.0,0.0,-0.122
2196265321820,2196263321820,2196.26532182,2196.26332182,-0.114,0.062,0.993,0.0,0.0,-0.122
2196275539361,2196273539361,2196.275539361,2196.273539361,-0.114,0.062,0.993,0.0,0.0,0.0
2196285613113,2196283613113,2196.285613113,2196.283613113,-0.114,0.062,0.993,0.0,0.0,-0.122
2196295632614,2196293632614,2196.295632614,2196.293632614,-0.114,0.062,0.993,0.0,0.0,-0.122
2196305674866,2196303674866,2196.305674866,2196.303674866,-0.114,0.062,0.993,0.0,0.0,-0.122
2196315759992,2196313759992,2196.315759992,2196.313759992,-0.114,0.062,0.993,0.0,0.0,-0.122
2196325981325,2196323981325,2196.325981325,2196.323981325,-0.114,0.062,0.993,0.0,0.0,-0.122
2196336006951,2196334006951,2196.336006951,2196.334006951,-0.114,0.062,0.993,0.0,0.0,-0.122
2196346051536,2196344051536,2196.346051536,2196.344051536,-0.114,0.062,0.993,0.0,0.0,-0.122
2196356113621,2196354113621,2196.356113621,2196.354113621,-0.114,0.062,0.993,0.0,0.0,-0.122
2196366172789,2196364172789,2196.366172789,2196.364172789,-0.114,0.062,0.993,0.0,0.0,-0.122
2196376367580,2196374367580,2196.37636758,2196.37436758,-0.114,0.062,0.993,0.0,0.0,-0.122
2196386414498,2196384414498,2196.386414498,2196.384414498,-0.114,0.062,0.993,0.0,0.0,-0.122
2196396502249,2196394502249,2196.396502249,2196.394502249,-0.114,0.062,0.993,0.0,0.0,0.0
2196406534001,2196404534001,2196.406534001,2196.404534001,-0.114,0.062,0.993,0.0,0.0,-0.122
2196416738417,2196414738417,2196.416738417,2196.414738417,-0.114,0.062,0.993,0.0,0.0,-0.122
2196426788252,2196424788252,2196.426788252,2196.424788252,-0.114,0.062,0.993,0.0,0.0,-0.122
2196436869586,2196434869586,2196.436869586,2196.434869586,-0.114,0.062,0.993,0.0,0.0,-0.122
2196446880630,2196444880630,2196.44688063,2196.44488063,-0.114,0.062,0.993,0.0,0.0,-0.122
2196457120337,2196455120337,2196.457120337,2196.455120337,-0.114,0.061,0.993,0.0,0.0,-0.122
2196467155297,2196465155297,2196.467155297,2196.465155297,-0.114,0.061,0.993,0.0,0.0,-0.122
2196477199882,2196475199882,2196.477199882,2196.475199882,-0.114,0.061,0.993,0.0,0.0,-0.122
2196487250300,2196485250300,2196.4872503,2196.4852503,-0.114,0.061,0.993,0.0,0.0,-0.122
2196497482424,2196495482424,2196.497482424,2196.495482424,-0.114,0.061,0.993,0.0,0.0,-0.122
2196507517384,2196505517384,2196.507517384,2196.505517384,-0.114,0.061,0.993,0.0,0.0,0.0
2196517579761,2196515579761,2196.517579761,2196.515579761,-0.114,0.061,0.993,0.0,0.0,-0.122
2196527619679,2196525619679,2196.527619679,2196.525619679,-0.114,0.061,0.993,0.0,0.0,-0.122
2196537666889,2196535666889,2196.537666889,2196.535666889,-0.114,0.061,0.993,0.0,0.0,-0.122
2196547880055,2196545880055,2196.547880055,2196.545880055,-0.114,0.061,0.993,0.0,0.0,-0.122
2196557976847,2196555976847,2196.557976847,2196.555976847,-0.114,0.061,0.993,0.0,0.0,-0.122
2196567986141,2196565986141,2196.567986141,2196.565986141,-0.114,0.061,0.993,0.0,0.0,-0.122
2196578031892,2196576031892,2196.578031892,2196.576031892,-0.114,0.061,0.993,0.0,0.0,-0.122
2196588126643,2196586126643,2196.588126643,2196.586126643,-0.114,0.061,0.993,0.0,0.0,-0.122
2196598289060,2196596289060,2196.59828906,2196.59628906,-0.114,0.061,0.993,0.0,0.0,-0.122
2196608348228,2196606348228,2196.608348228,2196.606348228,-0.114,0.061,0.993,0.0,0.0,-0.122
2196618383771,2196616383771,2196.618383771,2196.616383771,-0.114,0.061,0.993,0.0,0.0,-0.122
2196628452564,2196626452564,2196.628452564,2196.626452564,-0.114,0.061,0.993,0.0,0.0,0.0
2196638662522,2196636662522,2196.638662522,2196.636662522,-0.114,0.061,0.993,0.0,0.0,-0.122
2196648714398,2196646714398,2196.648714398,2196.646714398,-0.114,0.061,0.993,0.0,0.0,-0.122
2196658760733,2196656760733,2196.658760733,2196.656760733,-0.114,0.061,0.993,0.0,0.0,-0.061
2196668980024,2196666980024,2196.668980024,2196.666980024,-0.114,0.061,0.993,0.0,0.0,-0.061
2196679026651,2196677026651,2196.679026651,2196.677026651,-0.114,0.061,0.993,0.0,0.0,-0.061
2196689070069,2196687070069,2196.689070069,2196.687070069,-0.114,0.061,0.993,0.0,0.0,-0.061
2196699111446,2196697111446,2196.699111446,2196.697111446,-0.114,0.061,0.993,0.0,0.0,-0.061
2196709185780,2196707185780,2196.70918578,2196.70718578,-0.114,0.061,0.993,0.0,0.0,-0.061
2196719391946,2196717391946,2196.719391946,2196.717391946,-0.114,0.061,0.993,0.0,0.0,-0.061
2196729430406,2196727430406,2196.729430406,2196.727430406,-0.114,0.061,0.993,0.0,0.0,-0.061
2196739480533,2196737480533,2196.739480533,2196.737480533,-0.114,0.061,0.993,0.0,0.0,-0.061
2196749525992,2196747525992,2196.749525992,2196.747525992,-0.114,0.061,0.993,0.0,0.0,-0.061
2196759739742,2196757739742,2196.759739742,2196.757739742,-0.114,0.061,0.993,0.0,0.0,-0.061
2196769807076,2196767807076,2196.769807076,2196.767807076,-0.114,0.061,0.993,0.0,0.0,-0.061
2196779811120,2196777811120,2196.77981112,2196.77781112,-0.114,0.061,0.993,0.0,0.0,-0.061
2196789896538,2196787896538,2196.789896538,2196.787896538,-0.114,0.061,0.993,0.0,0.0,-0.061
2196800113787,2196798113787,2196.800113787,2196.798113787,-0.114,0.061,0.993,0.0,0.0,-0.061
2196810155455,2196808155455,2196.810155455,2196.808155455,-0.114,0.061,0.993,0.0,0.0,-0.061
2196820223373,2196818223373,2196.820223373,2196.818223373,-0.114,0.061,0.993,0.0,0.0,-0.061
2196830278750,2196828278750,2196.83027875,2196.82827875,-0.114,0.061,0.993,0.0,0.0,-0.061
2196840478791,2196838478791,2196.840478791,2196.838478791,-0.114,0.061,0.993,0.0,0.0,-0.061
2196850509084,2196848509084,2196.850509084,2196.848509084,-0.114,0.061,0.993,0.0,0.0,0.0
2196860577877,2196858577877,2196.860577877,2196.858577877,-0.114,0.061,0.993,0.0,0.0,-0.061
2196870627129,2196868627129,2196.870627129,2196.868627129,-0.114,0.061,0.993,0.0,0.0,-0.061
2196880674338,2196878674338,2196.880674338,2196.878674338,-0.114,0.061,0.993,0.0,0.0,-0.061
2196890886046,2196888886046,2196.890886046,2196.888886046,-0.114,0.061,0.993,0.0,0.0,-0.061
2196900972922,2196898972922,2196.900972922,2196.898972922,-0.114,0.061,0.993,0.0,0.0,-0.061
2196910971133,2196908971133,2196.910971133,2196.908971133,-0.114,0.061,0.993,0.0,0.0,-0.061
2196921015717,2196919015717,2196.921015717,2196.919015717,-0.114,0.061,0.993,0.0,0.0,-0.061
2196931084802,2196929084802,2196.931084802,2196.929084802,-0.114,0.061,0.993,0.0,0.0,-0.061
2196941297385,2196939297385,2196.941297385,2196.939297385,-0.114,0.061,0.993,0.0,0.0,-0.061
2196951365594,2196949365594,2196.951365594,2196.949365594,-0.114,0.061,0.993,0.0,0.0,-0.061
2196961394721,2196959394721,2196.961394721,2196.959394721,-0.114,0.061,0.993,0.0,0.0,-0.061
2196971436681,2196969436681,2196.971436681,2196.969436681,-0.114,0.062,0.993,0.0,0.0,0.0
2196981648389,2196979648389,2196.981648389,2196.979648389,-0.114,0.062,0.993,0.0,0.0,-0.061
2196991727681,2196989727681,2196.991727681,2196.989727681,-0.114,0.062,0.993,0.0,0.0,-0.061
2197001746600,2196999746600,2197.0017466,2196.9997466,-0.114,0.062,0.993,0.0,0.0,-0.061
2197011976391,2197009976391,2197.011976391,2197.009976391,-0.114,0.062,0.993,0.0,0.0,-0.061
2197022259848,2197020259848,2197.022259848,2197.020259848,-0.114,0.062,0.993,0.0,0.0,-0.122
2197032428389,2197030428389,2197.032428389,2197.030428389,-0.114,0.062,0.993,0.0,0.0,-0.061
2197042837553,2197040837553,2197.042837553,2197.040837553,-0.114,0.062,0.993,0.0,0.0,-0.122
2197052884471,2197050884471,2197.052884471,2197.050884471,-0.114,0.062,0.993,0.0,0.0,-0.061
2197062399396,2197060399396,2197.062399396,2197.060399396,-0.114,0.062,0.993,0.0,0.0,-0.061
2197073979878,2197071979878,2197.073979878,2197.071979878,-0.114,0.062,0.993,0.0,0.0,-0.061
2197084041671,2197082041671,2197.084041671,2197.082041671,-0.114,0.062,0.993,0.0,0.0,-0.122
2197094229754,2197092229754,2197.094229754,2197.092229754,-0.114,0.062,0.993,0.0,0.0,-0.122
2197104499503,2197102499503,2197.104499503,2197.102499503,-0.114,0.062,0.993,0.0,0.0,-0.122
2197114742711,2197112742711,2197.114742711,2197.112742711,-0.114,0.062,0.993,0.0,0.0,-0.122
2197124719338,2197122719338,2197.124719338,2197.122719338,-0.114,0.062,0.993,0.0,0.0,-0.122
2197135099627,2197133099627,2197.135099627,2197.133099627,-0.114,0.062,0.993,0.0,0.0,-0.122
2197145332626,2197143332626,2197.145332626,2197.143332626,-0.114,0.062,0.993,0.0,0.0,-0.122
2197155539959,2197153539959,2197.155539959,2197.153539959,-0.114,0.062,0.993,0.0,0.0,0.0
2197165754292,2197163754292,2197.165754292,2197.163754292,-0.114,0.062,0.993,0.0,0.0,-0.122
2197175976791,2197173976791,2197.175976791,2197.173976791,-0.114,0.062,0.993,0.0,0.0,-0.122
2197186213290,2197184213290,2197.18621329,2197.18421329,-0.114,0.062,0.993,0.0,0.0,-0.122
2197196490914,2197194490914,2197.196490914,2197.194490914,-0.114,0.062,0.993,0.0,0.0,0.0
2197206632039,2197204632039,2197.206632039,2197.204632039,-0.114,0.062,0.993,0.0,0.0,-0.122
2197216876705,2197214876705,2197.216876705,2197.214876705,-0.114,0.062,0.993,0.0,0.0,-0.122
2197227074413,2197225074413,2197.227074413,2197.225074413,-0.114,0.062,0.993,0.0,0.0,-0.122
2197237289329,2197235289329,2197.237289329,2197.235289329,-0.114,0.062,0.993,0.0,0.0,-0.122
2197247508912,2197245508912,2197.247508912,2197.245508912,-0.114,0.062,0.993,0.0,0.0,0.0
2197257729953,2197255729953,2197.257729953,2197.255729953,-0.114,0.062,0.993,0.0,0.0,-0.122
2197267962952,2197265962952,2197.267962952,2197.265962952,-0.114,0.062,0.993,0.0,0.0,-0.122
2197278205576,2197276205576,2197.278205576,2197.276205576,-0.114,0.062,0.993,0.0,0.0,-0.122
2197288387534,2197286387534,2197.288387534,2197.286387534,-0.114,0.062,0.993,0.0,0.0,-0.122
2197298607117,2197296607117,2197.298607117,2197.296607117,-0.114,0.062,0.993,0.0,0.0,-0.122
2197308833991,2197306833991,2197.308833991,2197.306833991,-0.114,0.062,0.993,0.0,0.0,-0.122
2197319034907,2197317034907,2197.319034907,2197.317034907,-0.114,0.062,0.993,0.0,0.0,-0.122
2197329255365,2197327255365,2197.329255365,2197.327255365,-0.114,0.062,0.993,0.0,0.0,-0.122
2197339465906,2197337465906,2197.339465906,2197.337465906,-0.114,0.062,0.993,0.0,0.0,-0.122
2197349701530,2197347701530,2197.34970153,2197.34770153,-0.114,0.062,0.993,0.0,0.0,-0.122
2197359967196,2197357967196,2197.359967196,2197.357967196,-0.114,0.062,0.993,0.0,0.0,-0.122
2197370136029,2197368136029,2197.370136029,2197.368136029,-0.114,0.062,0.993,0.0,0.0,-0.122
2197380466444,2197378466444,2197.380466444,2197.378466444,-0.114,0.062,0.993,0.0,0.0,-0.122
2197390740276,2197388740276,2197.390740276,2197.388740276,-0.114,0.062,0.993,0.0,0.0,-0.122
2197400964233,2197398964233,2197.400964233,2197.398964233,-0.114,0.062,0.993,0.0,0.0,-0.122
2197411237482,2197409237482,2197.411237482,2197.409237482,-0.114,0.062,0.993,0.0,0.0,-0.122
2197421383857,2197419383857,2197.421383857,2197.419383857,-0.114,0.062,0.993,0.0,0.0,-0.122
2197431523816,2197429523816,2197.431523816,2197.429523816,-0.114,0.062,0.993,0.0,0.0,-0.122
2197441845481,2197439845481,2197.441845481,2197.439845481,-0.114,0.062,0.993,0.0,0.0,-0.122
2197451848358,2197449848358,2197.451848358,2197.449848358,-0.114,0.062,0.993,0.0,0.0,-0.122
2197462208814,2197460208814,2197.462208814,2197.460208814,-0.114,0.062,0.993,0.0,0.0,-0.122
2197472436855,2197470436855,2197.472436855,2197.470436855,-0.114,0.062,0.993,0.0,0.0,-0.122
2197482670729,2197480670729,2197.482670729,2197.480670729,-0.114,0.062,0.993,0.0,0.0,-0.122
2197492919769,2197490919769,2197.492919769,2197.490919769,-0.114,0.062,0.993,0.0,0.0,-0.122
2197503085978,2197501085978,2197.503085978,2197.501085978,-0.114,0.062,0.993,0.0,0.0,-0.122
2197513310810,2197511310810,2197.51331081,2197.51131081,-0.114,0.062,0.993,0.0,0.0,-0.122
2197523731641,2197521731641,2197.523731641,2197.521731641,-0.114,0.062,0.993,0.0,0.0,-0.122
2197533922640,2197531922640,2197.53392264,2197.53192264,-0.114,0.062,0.993,0.0,0.0,-0.122
2197544175181,2197542175181,2197.544175181,2197.542175181,-0.114,0.062,0.993,0.0,0.0,-0.122
2197554387180,2197552387180,2197.55438718,2197.55238718,-0.114,0.062,0.993,0.0,0.0,0.0
2197564749386,2197562749386,2197.564749386,2197.562749386,-0.114,0.062,0.993,0.0,0.0,-0.122
2197574995219,2197572995219,2197.574995219,2197.572995219,-0.114,0.062,0.993,0.0,0.0,-0.122
2197585234635,2197583234635,2197.585234635,2197.583234635,-0.114,0.062,0.993,0.0,0.0,-0.122
2197595653423,2197593653423,2197.595653423,2197.593653423,-0.114,0.062,0.993,0.0,0.0,-0.122
2197605839173,2197603839173,2197.605839173,2197.603839173,-0.114,0.062,0.993,0.0,0.0,-0.122
2197616058464,2197614058464,2197.616058464,2197.614058464,-0.114,0.062,0.993,0.0,0.0,-0.122
2197626260255,2197624260255,2197.626260255,2197.624260255,-0.114,0.062,0.993,0.0,0.0,-0.122
2197636480713,2197634480713,2197.636480713,2197.634480713,-0.114,0.062,0.993,0.0,0.0,0.0
2197646709337,2197644709337,2197.646709337,2197.644709337,-0.114,0.062,0.993,0.0,0.0,-0.122
2197656995711,2197654995711,2197.656995711,2197.654995711,-0.114,0.062,0.993,0.0,0.0,-0.122
2197667118753,2197665118753,2197.667118753,2197.665118753,-0.114,0.062,0.993,0.0,0.0,-0.122
2197677346210,2197675346210,2197.67734621,2197.67534621,-0.114,0.062,0.993,0.0,0.0,-0.122
2197687573960,2197685573960,2197.68757396,2197.68557396,-0.114,0.062,0.993,0.0,0.0,-0.122
2197697780709,2197695780709,2197.697780709,2197.695780709,-0.114,0.062,0.993,0.0,0.0,-0.122
2197707993292,2197705993292,2197.707993292,2197.705993292,-0.114,0.062,0.993,0.0,0.0,-0.122
2197718220750,2197716220750,2197.71822075,2197.71622075,-0.114,0.062,0.993,0.0,0.0,-0.122
2197728429541,2197726429541,2197.728429541,2197.726429541,-0.114,0.061,0.993,0.0,0.0,-0.122
2197738500084,2197736500084,2197.738500084,2197.736500084,-0.114,0.061,0.993,0.0,0.0,-0.122
2197748855581,2197746855581,2197.748855581,2197.746855581,-0.114,0.061,0.993,0.0,0.0,-0.122
2197759085664,2197757085664,2197.759085664,2197.757085664,-0.114,0.061,0.993,0.0,0.0,-0.122
2197769296205,2197767296205,2197.769296205,2197.767296205,-0.114,0.061,0.993,0.0,0.0,-0.122
2197779525412,2197777525412,2197.779525412,2197.777525412,-0.114,0.061,0.993,0.0,0.0,0.0
2197789739162,2197787739162,2197.789739162,2197.787739162,-0.114,0.061,0.993,0.0,0.0,-0.122
2197799972161,2197797972161,2197.799972161,2197.797972161,-0.114,0.061,0.993,0.0,0.0,-0.122
2197810350117,2197808350117,2197.810350117,2197.808350117,-0.114,0.061,0.993,0.0,0.0,-0.122
2197820624532,2197818624532,2197.820624532,2197.818624532,-0.114,0.061,0.993,0.0,0.0,0.0
2197830816990,2197828816990,2197.83081699,2197.82881699,-0.114,0.061,0.993,0.0,0.0,-0.122
2197841000990,2197839000990,2197.84100099,2197.83900099,-0.114,0.061,0.993,0.0,0.0,-0.122
2197851221156,2197849221156,2197.851221156,2197.849221156,-0.114,0.061,0.993,0.0,0.0,-0.122
2197861302490,2197859302490,2197.86130249,2197.85930249,-0.114,0.06,0.993,0.0,0.0,-0.122
2197871533448,2197869533448,2197.871533448,2197.869533448,-0.114,0.06,0.993,0.0,0.0,-0.122
2197881667865,2197879667865,2197.881667865,2197.879667865,-0.114,0.06,0.993,0.0,0.0,-0.122
2197891964447,2197889964447,2197.891964447,2197.889964447,-0.114,0.06,0.993,0.0,0.0,-0.122
2197902113447,2197900113447,2197.902113447,2197.900113447,-0.114,0.06,0.993,0.0,0.0,-0.122
2197912333321,2197910333321,2197.912333321,2197.910333321,-0.114,0.06,0.993,0.0,0.0,-0.061
2197922557862,2197920557862,2197.922557862,2197.920557862,-0.114,0.06,0.993,0.0,0.0,-0.061
2197932778612,2197930778612,2197.932778612,2197.930778612,-0.114,0.06,0.993,0.0,0.0,-0.061
2197942997903,2197940997903,2197.942997903,2197.940997903,-0.114,0.06,0.993,0.0,0.0,-0.061
2197953227694,2197951227694,2197.953227694,2197.951227694,-0.114,0.06,0.993,0.0,0.0,-0.061
2197963423943,2197961423943,2197.963423943,2197.961423943,-0.114,0.06,0.993,0.0,0.0,0.0
2197973660151,2197971660151,2197.973660151,2197.971660151,-0.114,0.06,0.993,0.0,0.0,-0.061
2197983953816,2197981953816,2197.983953816,2197.981953816,-0.114,0.06,0.993,0.0,0.0,-0.061
2197994127316,2197992127316,2197.994127316,2197.992127316,-0.114,0.06,0.993,0.0,0.0,-0.061
2198004344565,2198002344565,2198.004344565,2198.002344565,-0.114,0.06,0.993,0.0,0.0,-0.061
2198014572023,2198012572023,2198.014572023,2198.012572023,-0.114,0.06,0.993,0.0,0.0,-0.061
2198024797439,2198022797439,2198.024797439,2198.022797439,-0.114,0.06,0.993,0.0,0.0,-0.061
2198035001272,2198033001272,2198.035001272,2198.033001272,-0.114,0.06,0.993,0.0,0.0,-0.061
2198045212396,2198043212396,2198.045212396,2198.043212396,-0.114,0.06,0.993,0.0,0.0,-0.061
2198055464062,2198053464062,2198.055464062,2198.053464062,-0.114,0.06,0.993,0.0,0.0,-0.061
2198065648645,2198063648645,2198.065648645,2198.063648645,-0.114,0.06,0.993,0.0,0.0,-0.061
2198075879311,2198073879311,2198.075879311,2198.073879311,-0.114,0.06,0.993,0.0,0.0,-0.061
2198086089268,2198084089268,2198.086089268,2198.084089268,-0.114,0.06,0.993,0.0,0.0,-0.061
2198096320809,2198094320809,2198.096320809,2198.094320809,-0.114,0.06,0.993,0.0,0.0,-0.061
2198106608933,2198104608933,2198.106608933,2198.104608933,-0.114,0.061,0.993,0.0,0.0,-0.061
2198116728475,2198114728475,2198.116728475,2198.114728475,-0.114,0.061,0.993,0.0,0.0,-0.061
2198126952141,2198124952141,2198.126952141,2198.124952141,-0.114,0.061,0.993,0.0,0.0,-0.061
2198137231806,2198135231806,2198.137231806,2198.135231806,-0.114,0.061,0.993,0.0,0.0,-0.061
2198147479097,2198145479097,2198.147479097,2198.145479097,-0.114,0.061,0.993,0.0,0.0,-0.061
2198157622264,2198155622264,2198.157622264,2198.155622264,-0.114,0.061,0.993,0.0,0.0,-0.061
2198167871596,2198165871596,2198.167871596,2198.165871596,-0.114,0.061,0.993,0.0,0.0,-0.061
2198178077763,2198176077763,2198.178077763,2198.176077763,-0.114,0.061,0.993,0.0,0.0,-0.061
2198188293554,2198186293554,2198.188293554,2198.186293554,-0.114,0.061,0.993,0.0,0.0,-0.061
2198198442262,2198196442262,2198.198442262,2198.196442262,-0.114,0.061,0.993,0.0,0.0,-0.061
2198208846468,2198206846468,2198.208846468,2198.206846468,-0.114,0.061,0.993,0.0,0.0,-0.061
2198218911177,2198216911177,2198.218911177,2198.216911177,-0.114,0.061,0.993,0.0,0.0,-0.061
2198229098969,2198227098969,2198.229098969,2198.227098969,-0.114,0.061,0.993,0.0,0.0,-0.061
2198239401675,2198237401675,2198.239401675,2198.237401675,-0.114,0.062,0.993,0.0,0.0,-0.061
2198249725090,2198247725090,2198.24972509,2198.24772509,-0.114,0.062,0.993,0.0,0.0,-0.061
2198259922215,2198257922215,2198.259922215,2198.257922215,-0.114,0.062,0.993,0.0,0.0,-0.061
2198270159880,2198268159880,2198.27015988,2198.26815988,-0.114,0.062,0.993,0.0,0.0,-0.061
2198280353505,2198278353505,2198.280353505,2198.278353505,-0.114,0.062,0.993,0.0,0.0,-0.061
2198290657087,2198288657087,2198.290657087,2198.288657087,-0.114,0.062,0.993,0.0,0.0,-0.122
2198300801712,2198298801712,2198.300801712,2198.298801712,-0.114,0.062,0.993,0.0,0.0,-0.061
2198311027128,2198309027128,2198.311027128,2198.309027128,-0.114,0.062,0.993,0.0,0.0,-0.061
2198321237669,2198319237669,2198.321237669,2198.319237669,-0.114,0.062,0.993,0.0,0.0,-0.061
2198331466293,2198329466293,2198.331466293,2198.329466293,-0.114,0.062,0.993,0.0,0.0,0.0
2198341678001,2198339678001,2198.341678001,2198.339678001,-0.114,0.062,0.993,0.0,0.0,-0.061
2198351935500,2198349935500,2198.3519355,2198.3499355,-0.114,0.062,0.993,0.0,0.0,-0.061
2198362153041,2198360153041,2198.362153041,2198.360153041,-0.114,0.062,0.993,0.0,0.0,-0.061
2198372373790,2198370373790,2198.37237379,2198.37037379,-0.114,0.062,0.993,0.0,0.0,-0.122
2198382582582,2198380582582,2198.382582582,2198.380582582,-0.114,0.062,0.993,0.0,0.0,-0.122
2198392979495,2198390979495,2198.392979495,2198.390979495,-0.114,0.062,0.993,0.0,0.0,-0.122
2198403171078,2198401171078,2198.403171078,2198.401171078,-0.114,0.062,0.993,0.0,0.0,-0.122
2198413367036,2198411367036,2198.413367036,2198.411367036,-0.114,0.062,0.993,0.0,0.0,-0.122
2198423584869,2198421584869,2198.423584869,2198.421584869,-0.114,0.062,0.993,0.0,0.0,-0.122
2198433894284,2198431894284,2198.433894284,2198.431894284,-0.114,0.062,0.993,0.0,0.0,-0.122
2198444036576,2198442036576,2198.444036576,2198.442036576,-0.114,0.062,0.993,0.0,0.0,-0.122
2198454263742,2198452263742,2198.454263742,2198.452263742,-0.114,0.062,0.993,0.0,0.0,-0.122
2198464458825,2198462458825,2198.464458825,2198.462458825,-0.114,0.062,0.993,0.0,0.0,-0.122
2198474686574,2198472686574,2198.474686574,2198.472686574,-0.114,0.062,0.993,0.0,0.0,-0.122
2198484904990,2198482904990,2198.48490499,2198.48290499,-0.114,0.062,0.993,0.0,0.0,-0.122
2198495115823,2198493115823,2198.495115823,2198.493115823,-0.114,0.062,0.993,0.0,0.0,-0.122
2198505343281,2198503343281,2198.505343281,2198.503343281,-0.114,0.063,0.993,0.0,0.0,-0.122
2198515565488,2198513565488,2198.515565488,2198.513565488,-0.114,0.063,0.993,0.0,0.0,-0.122
2198525944319,2198523944319,2198.525944319,2198.523944319,-0.114,0.063,0.993,0.0,0.0,-0.122
2198536170027,2198534170027,2198.536170027,2198.534170027,-0.114,0.062,0.993,0.0,0.0,-0.122
2198546375026,2198544375026,2198.546375026,2198.544375026,-0.114,0.063,0.993,0.0,0.0,-0.122
2198556594317,2198554594317,2198.556594317,2198.554594317,-0.114,0.062,0.993,0.0,0.0,-0.122
2198566888857,2198564888857,2198.566888857,2198.564888857,-0.114,0.063,0.993,0.0,0.0,-0.122
2198577072857,2198575072857,2198.577072857,2198.575072857,-0.114,0.063,0.993,0.0,0.0,-0.122
2198587354272,2198585354272,2198.587354272,2198.585354272,-0.114,0.062,0.993,0.0,0.0,-0.122
2198597471773,2198595471773,2198.597471773,2198.595471773,-0.114,0.062,0.993,0.0,0.0,0.0
2198607685522,2198605685522,2198.607685522,2198.605685522,-0.114,0.063,0.993,0.0,0.0,-0.122
2198617908605,2198615908605,2198.617908605,2198.615908605,-0.114,0.062,0.993,0.0,0.0,-0.122
2198628154146,2198626154146,2198.628154146,2198.626154146,-0.114,0.062,0.993,0.0,0.0,-0.122
2198638526268,2198636526268,2198.638526268,2198.636526268,-0.114,0.062,0.993,0.0,0.0,0.0
2198648736518,2198646736518,2198.648736518,2198.646736518,-0.114,0.062,0.993,0.0,0.0,-0.122
2198658950850,2198656950850,2198.65895085,2198.65695085,-0.114,0.062,0.993,0.0,0.0,-0.183
2198669164308,2198667164308,2198.669164308,2198.667164308,-0.114,0.062,0.993,0.0,0.0,-0.183
2198679401682,2198677401682,2198.679401682,2198.677401682,-0.114,0.062,0.993,0.0,0.0,-0.183
2198689601140,2198687601140,2198.68960114,2198.68760114,-0.114,0.062,0.993,0.0,0.0,-0.122
2198699828015,2198697828015,2198.699828015,2198.697828015,-0.114,0.062,0.993,0.0,0.0,-0.122
2198710035931,2198708035931,2198.710035931,2198.708035931,-0.114,0.062,0.993,0.0,0.0,-0.122
2198720425261,2198718425261,2198.720425261,2198.718425261,-0.114,0.062,0.993,0.0,0.0,-0.122
2198730649219,2198728649219,2198.730649219,2198.728649219,-0.114,0.062,0.993,0.0,0.0,-0.122
2198740908176,2198738908176,2198.740908176,2198.738908176,-0.114,0.062,0.993,0.0,0.0,-0.122
2198751070010,2198749070010,2198.75107001,2198.74907001,-0.114,0.062,0.993,0.0,0.0,-0.122
2198761292217,2198759292217,2198.761292217,2198.759292217,-0.114,0.062,0.993,0.0,0.0,-0.122
2198771558174,2198769558174,2198.771558174,2198.769558174,-0.114,0.062,0.993,0.0,0.0,-0.122
2198781903464,2198779903464,2198.781903464,2198.779903464,-0.114,0.062,0.993,0.0,0.0,-0.122
2198792169713,2198790169713,2198.792169713,2198.790169713,-0.114,0.062,0.993,0.0,0.0,-0.122
2198802206423,2198800206423,2198.802206423,2198.800206423,-0.114,0.062,0.993,0.0,0.0,-0.122
2198812420755,2198810420755,2198.812420755,2198.810420755,-0.114,0.062,0.993,0.0,0.0,-0.122
2198822647921,2198820647921,2198.822647921,2198.820647921,-0.114,0.062,0.993,0.0,0.0,-0.122
2198832849129,2198830849129,2198.832849129,2198.830849129,-0.114,0.062,0.993,0.0,0.0,-0.122
2198843078628,2198841078628,2198.843078628,2198.841078628,-0.114,0.062,0.993,0.0,0.0,-0.122
2198853292670,2198851292670,2198.85329267,2198.85129267,-0.114,0.062,0.993,0.0,0.0,-0.122
2198863683167,2198861683167,2198.863683167,2198.861683167,-0.114,0.062,0.993,0.0,0.0,-0.122
2198873946499,2198871946499,2198.873946499,2198.871946499,-0.114,0.061,0.993,0.0,0.0,-0.122
2198884112416,2198882112416,2198.884112416,2198.882112416,-0.114,0.061,0.993,0.0,0.0,-0.122
2198894316832,2198892316832,2198.894316832,2198.892316832,-0.114,0.061,0.993,0.0,0.0,-0.122
2198904539039,2198902539039,2198.904539039,2198.902539039,-0.114,0.061,0.993,0.0,0.0,0.0
2198914751331,2198912751331,2198.914751331,2198.912751331,-0.114,0.061,0.993,0.0,0.0,-0.122
2198924981121,2198922981121,2198.924981121,2198.922981121,-0.114,0.061,0.993,0.0,0.0,-0.122
2198935201579,2198933201579,2198.935201579,2198.933201579,-0.114,0.061,0.993,0.0,0.0,-0.122
2198945411245,2198943411245,2198.945411245,2198.943411245,-0.114,0.061,0.993,0.0,0.0,-0.122
2198955617995,2198953617995,2198.955617995,2198.953617995,-0.114,0.061,0.993,0.0,0.0,-0.122
2198965832911,2198963832911,2198.965832911,2198.963832911,-0.114,0.061,0.993,0.0,0.0,-0.122
2198976075535,2198974075535,2198.976075535,2198.974075535,-0.114,0.061,0.993,0.0,0.0,-0.122
2198986460782,2198984460782,2198.986460782,2198.984460782,-0.114,0.061,0.993,0.0,0.0,-0.122
2198996668698,2198994668698,2198.996668698,2198.994668698,-0.114,0.061,0.993,0.0,0.0,-0.122
2199006873990,2199004873990,2199.00687399,2199.00487399,-0.114,0.061,0.993,0.0,0.0,-0.122
2199017092697,2199015092697,2199.017092697,2199.015092697,-0.114,0.061,0.993,0.0,0.0,-0.122
2199027244906,2199025244906,2199.027244906,2199.025244906,-0.114,0.061,0.993,0.0,0.0,-0.122
2199037366198,2199035366198,2199.037366198,2199.035366198,-0.114,0.061,0.993,0.0,0.0,-0.122
2199047590156,2199045590156,2199.047590156,2199.045590156,-0.114,0.061,0.993,0.0,0.0,-0.122
2199057805072,2199055805072,2199.057805072,2199.055805072,-0.114,0.061,0.993,0.0,0.0,-0.122
2199068009780,2199066009780,2199.06800978,2199.06600978,-0.114,0.061,0.993,0.0,0.0,-0.122
2199078263195,2199076263195,2199.078263195,2199.076263195,-0.114,0.061,0.993,0.0,0.0,-0.122
2199088448362,2199086448362,2199.088448362,2199.086448362,-0.114,0.061,0.993,0.0,0.0,-0.122
2199098669403,2199096669403,2199.098669403,2199.096669403,-0.114,0.061,0.993,0.0,0.0,-0.122
2199108942943,2199106942943,2199.108942943,2199.106942943,-0.114,0.061,0.993,0.0,0.0,-0.122
2199119109151,2199117109151,2199.119109151,2199.117109151,-0.114,0.061,0.993,0.0,0.0,-0.122
2199129767687,2199127767687,2199.129767687,2199.127767687,-0.114,0.061,0.993,0.0,0.0,-0.122
2199139888688,2199137888688,2199.139888688,2199.137888688,-0.114,0.061,0.993,0.0,0.0,-0.122
2199150486849,2199148486849,2199.150486849,2199.148486849,-0.114,0.061,0.993,0.0,0.0,-0.122
2199162580075,2199160580075,2199.162580075,2199.160580075,-0.114,0.061,0.993,0.0,0.0,-0.122
2199172410871,2199170410871,2199.172410871,2199.170410871,-0.114,0.061,0.993,0.0,0.0,-0.122
2199182641537,2199180641537,2199.182641537,2199.180641537,-0.114,0.061,0.993,0.0,0.0,-0.061
2199193006076,2199191006076,2199.193006076,2199.191006076,-0.114,0.061,0.993,0.0,0.0,-0.061
2199203653112,2199201653112,2199.203653112,2199.201653112,-0.114,0.061,0.993,0.0,0.0,-0.061
2199213511824,2199211511824,2199.213511824,2199.211511824,-0.114,0.061,0.993,0.0,0.0,-0.061
2199223770198,2199221770198,2199.223770198,2199.221770198,-0.114,0.061,0.993,0.0,0.0,-0.061
2199234228069,2199232228069,2199.234228069,2199.232228069,-0.114,0.061,0.993,0.0,0.0,-0.061
2199244592234,2199242592234,2199.244592234,2199.242592234,-0.114,0.061,0.993,0.0,0.0,-0.061
2199254649568,2199252649568,2199.254649568,2199.252649568,-0.114,0.061,0.993,0.0,0.0,-0.061
2199264938275,2199262938275,2199.264938275,2199.262938275,-0.114,0.061,0.993,0.0,0.0,0.0
2199275124900,2199273124900,2199.2751249,2199.2731249,-0.114,0.061,0.993,0.0,0.0,-0.122
2199285163360,2199283163360,2199.28516336,2199.28316336,-0.114,0.061,0.993,0.0,0.0,-0.122
2199295516524,2199293516524,2199.295516524,2199.293516524,-0.114,0.061,0.993,0.0,0.0,-0.061
2199305727357,2199303727357,2199.305727357,2199.303727357,-0.114,0.061,0.993,0.0,0.0,-0.061
2199315829108,2199313829108,2199.315829108,2199.313829108,-0.114,0.061,0.993,0.0,0.0,-0.061
2199326340354,2199324340354,2199.326340354,2199.324340354,-0.114,0.061,0.993,0.0,0.0,-0.061
2199336579186,2199334579186,2199.336579186,2199.334579186,-0.114,0.061,0.993,0.0,0.0,-0.061
2199346659937,2199344659937,2199.346659937,2199.344659937,-0.114,0.061,0.993,0.0,0.0,0.0
2199357002310,2199355002310,2199.35700231,2199.35500231,-0.114,0.061,0.993,0.0,0.0,-0.061
2199367316975,2199365316975,2199.367316975,2199.365316975,-0.114,0.061,0.993,0.0,0.0,-0.061
2199377577390,2199375577390,2199.37757739,2199.37557739,-0.114,0.061,0.993,0.0,0.0,-0.061
2199387709224,2199385709224,2199.387709224,2199.385709224,-0.114,0.061,0.993,0.0,0.0,-0.061
2199398210553,2199396210553,2199.398210553,2199.396210553,-0.114,0.061,0.993,0.0,0.0,-0.061
2199408423136,2199406423136,2199.408423136,2199.406423136,-0.114,0.061,0.993,0.0,0.0,-0.061
2199418596636,2199416596636,2199.418596636,2199.416596636,-0.114,0.061,0.993,0.0,0.0,-0.061
2199428938426,2199426938426,2199.428938426,2199.426938426,-0.114,0.061,0.993,0.0,0.0,-0.061
2199439359256,2199437359256,2199.439359256,2199.437359256,-0.114,0.061,0.993,0.0,0.0,-0.061
2199449301175,2199447301175,2199.449301175,2199.447301175,-0.114,0.061,0.993,0.0,0.0,-0.061
2199459471759,2199457471759,2199.459471759,2199.457471759,-0.114,0.061,0.993,0.0,0.0,-0.061
2199469685216,2199467685216,2199.469685216,2199.467685216,-0.114,0.061,0.993,0.0,0.0,-0.061
2199479862800,2199477862800,2199.4798628,2199.4778628,-0.114,0.061,0.993,0.0,0.0,-0.061
2199490115923,2199488115923,2199.490115923,2199.488115923,-0.114,0.061,0.993,0.0,0.0,-0.122
2199500356214,2199498356214,2199.500356214,2199.498356214,-0.114,0.061,0.993,0.0,0.0,-0.122
2199510719295,2199508719295,2199.510719295,2199.508719295,-0.114,0.062,0.993,0.0,0.0,-0.122
2199520945003,2199518945003,2199.520945003,2199.518945003,-0.114,0.062,0.993,0.0,0.0,-0.061
2199531168085,2199529168085,2199.531168085,2199.529168085,-0.114,0.062,0.993,0.0,0.0,-0.061
2199541387085,2199539387085,2199.541387085,2199.539387085,-0.114,0.062,0.993,0.0,0.0,-0.061
2199551595584,2199549595584,2199.551595584,2199.549595584,-0.114,0.062,0.993,0.0,0.0,-0.061
2199561882833,2199559882833,2199.561882833,2199.559882833,-0.114,0.062,0.993,0.0,0.0,-0.061
2199572034458,2199570034458,2199.572034458,2199.570034458,-0.114,0.062,0.993,0.0,0.0,-0.061
2199582257832,2199580257832,2199.582257832,2199.580257832,-0.114,0.062,0.993,0.0,0.0,-0.122
2199592714537,2199590714537,2199.592714537,2199.590714537,-0.114,0.062,0.993,0.0,0.0,-0.122
2199602936453,2199600936453,2199.602936453,2199.600936453,-0.114,0.062,0.993,0.0,0.0,-0.122
2199613109953,2199611109953,2199.613109953,2199.611109953,-0.114,0.062,0.993,0.0,0.0,-0.122
2199623337994,2199621337994,2199.623337994,2199.621337994,-0.114,0.062,0.993,0.0,0.0,-0.122
2199633612118,2199631612118,2199.633612118,2199.631612118,-0.114,0.062,0.993,0.0,0.0,0.0
2199643849783,2199641849783,2199.643849783,2199.641849783,-0.114,0.062,0.993,0.0,0.0,-0.122
2199653986242,2199651986242,2199.653986242,2199.651986242,-0.114,0.062,0.993,0.0,0.0,-0.122
2199664191242,2199662191242,2199.664191242,2199.662191242,-0.114,0.062,0.993,0.0,0.0,-0.122
2199674429491,2199672429491,2199.674429491,2199.672429491,-0.114,0.062,0.993,0.0,0.0,-0.122
2199684586949,2199682586949,2199.684586949,2199.682586949,-0.114,0.062,0.993,0.0,0.0,-0.122
2199694857865,2199692857865,2199.694857865,2199.692857865,-0.114,0.062,0.993,0.0,0.0,-0.122
2199705026698,2199703026698,2199.705026698,2199.703026698,-0.114,0.062,0.993,0.0,0.0,-0.122
2199715341071,2199713341071,2199.715341071,2199.713341071,-0.114,0.062,0.993,0.0,0.0,-0.122
2199725463238,2199723463238,2199.725463238,2199.723463238,-0.114,0.062,0.993,0.0,0.0,0.0
2199735928110,2199733928110,2199.73592811,2199.73392811,-0.114,0.062,0.993,0.0,0.0,-0.122
2199746068943,2199744068943,2199.746068943,2199.744068943,-0.114,0.062,0.993,0.0,0.0,-0.122
2199756283568,2199754283568,2199.756283568,2199.754283568,-0.114,0.062,0.993,0.0,0.0,-0.122
2199766594733,2199764594733,2199.766594733,2199.764594733,-0.114,0.062,0.993,0.0,0.0,0.0
2199776740525,2199774740525,2199.776740525,2199.774740525,-0.114,0.062,0.993,0.0,0.0,-0.122
2199786965066,2199784965066,2199.786965066,2199.784965066,-0.114,0.062,0.993,0.0,0.0,-0.122
2199797156065,2199795156065,2199.797156065,2199.795156065,-0.114,0.062,0.993,0.0,0.0,-0.122
2199807381773,2199805381773,2199.807381773,2199.805381773,-0.114,0.062,0.993,0.0,0.0,0.0
2199817772853,2199815772853,2199.817772853,2199.815772853,-0.114,0.062,0.993,0.0,0.0,-0.122
2199827982228,2199825982228,2199.827982228,2199.825982228,-0.114,0.062,0.993,0.0,0.0,-0.122
2199838195686,2199836195686,2199.838195686,2199.836195686,-0.114,0.062,0.993,0.0,0.0,-0.122
2199848426352,2199846426352,2199.848426352,2199.846426352,-0.114,0.062,0.993,0.0,0.0,-0.122
2199858648559,2199856648559,2199.858648559,2199.856648559,-0.114,0.062,0.993,0.0,0.0,-0.122
2199868892350,2199866892350,2199.86889235,2199.86689235,-0.114,0.062,0.993,0.0,0.0,-0.122
2199879254848,2199877254848,2199.879254848,2199.877254848,-0.114,0.062,0.993,0.0,0.0,-0.122
2199889459847,2199887459847,2199.889459847,2199.887459847,-0.114,0.062,0.993,0.0,0.0,-0.122
2199899666013,2199897666013,2199.899666013,2199.897666013,-0.114,0.062,0.993,0.0,0.0,-0.122
2199909904262,2199907904262,2199.909904262,2199.907904262,-0.114,0.062,0.993,0.0,0.0,-0.122
2199920128512,2199918128512,2199.920128512,2199.918128512,-0.114,0.062,0.993,0.0,0.0,-0.122
2199930392719,2199928392719,2199.930392719,2199.928392719,-0.114,0.062,0.993,0.0,0.0,-0.122
2199940717009,2199938717009,2199.940717009,2199.938717009,-0.114,0.062,0.993,0.0,0.0,-0.122
2199950931633,2199948931633,2199.950931633,2199.948931633,-0.114,0.062,0.993,0.0,0.0,-0.122
2199961149757,2199959149757,2199.961149757,2199.959149757,-0.114,0.062,0.993,0.0,0.0,-0.122
2199971379548,2199969379548,2199.971379548,2199.969379548,-0.114,0.062,0.993,0.0,0.0,0.0
2199981770629,2199979770629,2199.981770629,2199.979770629,-0.114,0.062,0.993,0.0,0.0,-0.122
2199991967170,2199989967170,2199.99196717,2199.98996717,-0.114,0.062,0.993,0.0,0.0,-0.122
2200002216794,2200000216794,2200.002216794,2200.000216794,-0.114,0.062,0.993,0.0,0.0,-0.122
2200012419169,2200010419169,2200.012419169,2200.010419169,-0.114,0.062,0.993,0.0,0.0,-0.122
2200022657710,2200020657710,2200.02265771,2200.02065771,-0.114,0.062,0.993,0.0,0.0,-0.122
2200032891292,2200030891292,2200.032891292,2200.030891292,-0.114,0.062,0.993,0.0,0.0,-0.122
2200043255831,2200041255831,2200.043255831,2200.041255831,-0.114,0.062,0.993,0.0,0.0,-0.122
2200053285833,2200051285833,2200.053285833,2200.051285833,-0.114,0.062,0.993,0.0,0.0,-0.122
2200063666705,2200061666705,2200.063666705,2200.061666705,-0.114,0.062,0.993,0.0,0.0,-0.122
2200073970579,2200071970579,2200.073970579,2200.071970579,-0.114,0.062,0.993,0.0,0.0,-0.122
2200084093913,2200082093913,2200.084093913,2200.082093913,-0.114,0.062,0.993,0.0,0.0,-0.122
2200094320787,2200092320787,2200.094320787,2200.092320787,-0.114,0.062,0.993,0.0,0.0,-0.122
2200104549994,2200102549994,2200.104549994,2200.102549994,-0.114,0.062,0.993,0.0,0.0,-0.122
2200114849784,2200112849784,2200.114849784,2200.112849784,-0.114,0.062,0.993,0.0,0.0,-0.122
2200125152199,2200123152199,2200.125152199,2200.123152199,-0.114,0.062,0.993,0.0,0.0,-0.122
2200135367991,2200133367991,2200.135367991,2200.133367991,-0.114,0.062,0.993,0.0,0.0,-0.122
2200145573865,2200143573865,2200.145573865,2200.143573865,-0.114,0.061,0.993,0.0,0.0,-0.122
2200155788489,2200153788489,2200.155788489,2200.153788489,-0.114,0.061,0.993,0.0,0.0,-0.122
2200165971614,2200163971614,2200.165971614,2200.163971614,-0.114,0.061,0.993,0.0,0.0,-0.122
2200176282488,2200174282488,2200.176282488,2200.174282488,-0.114,0.061,0.993,0.0,0.0,-0.122
2200186402030,2200184402030,2200.18640203,2200.18440203,-0.114,0.061,0.993,0.0,0.0,-0.122
2200196699195,2200194699195,2200.196699195,2200.194699195,-0.114,0.061,0.993,0.0,0.0,-0.122
2200206887861,2200204887861,2200.206887861,2200.204887861,-0.114,0.061,0.993,0.0,0.0,-0.122
2200217110652,2200215110652,2200.217110652,2200.215110652,-0.114,0.061,0.993,0.0,0.0,-0.122
2200227502899,2200225502899,2200.227502899,2200.225502899,-0.114,0.061,0.993,0.0,0.0,-0.122
2200237744065,2200235744065,2200.237744065,2200.235744065,-0.114,0.061,0.993,0.0,0.0,-0.122
2200247973856,2200245973856,2200.247973856,2200.245973856,-0.114,0.061,0.993,0.0,0.0,-0.122
2200258146481,2200256146481,2200.258146481,2200.256146481,-0.114,0.061,0.993,0.0,0.0,-0.122
2200268361397,2200266361397,2200.268361397,2200.266361397,-0.114,0.061,0.993,0.0,0.0,-0.122
2200278402482,2200276402482,2200.278402482,2200.276402482,-0.114,0.061,0.993,0.0,0.0,0.0
2200288787438,2200286787438,2200.288787438,2200.286787438,-0.114,0.061,0.993,0.0,0.0,-0.122
2200299015479,2200297015479,2200.299015479,2200.297015479,-0.114,0.061,0.993,0.0,0.0,-0.122
2200309221353,2200307221353,2200.309221353,2200.307221353,-0.114,0.061,0.993,0.0,0.0,-0.122
2200319547101,2200317547101,2200.319547101,2200.317547101,-0.114,0.061,0.993,0.0,0.0,0.0
2200329663143,2200327663143,2200.329663143,2200.327663143,-0.114,0.061,0.993,0.0,0.0,-0.122
2200339888559,2200337888559,2200.339888559,2200.337888559,-0.114,0.061,0.993,0.0,0.0,-0.122
2200350114559,2200348114559,2200.350114559,2200.348114559,-0.114,0.061,0.993,0.0,0.0,-0.122
2200360340558,2200358340558,2200.360340558,2200.358340558,-0.114,0.061,0.993,0.0,0.0,-0.122
2200370770430,2200368770430,2200.37077043,2200.36877043,-0.114,0.061,0.993,0.0,0.0,-0.061
2200380945680,2200378945680,2200.38094568,2200.37894568,-0.114,0.061,0.993,0.0,0.0,-0.061
2200391156512,2200389156512,2200.391156512,2200.389156512,-0.114,0.061,0.993,0.0,0.0,-0.061
2200401351595,2200399351595,2200.401351595,2200.399351595,-0.114,0.061,0.993,0.0,0.0,-0.061
2200411587803,2200409587803,2200.411587803,2200.409587803,-0.114,0.061,0.993,0.0,0.0,-0.061
2200421807094,2200419807094,2200.421807094,2200.419807094,-0.114,0.061,0.993,0.0,0.0,-0.061
2200432022010,2200430022010,2200.43202201,2200.43002201,-0.114,0.061,0.993,0.0,0.0,-0.061
2200442389174,2200440389174,2200.442389174,2200.440389174,-0.114,0.061,0.993,0.0,0.0,-0.061
2200452624507,2200450624507,2200.452624507,2200.450624507,-0.114,0.061,0.993,0.0,0.0,-0.061
2200462885214,2200460885214,2200.462885214,2200.460885214,-0.114,0.061,0.993,0.0,0.0,-0.061
2200473211545,2200471211545,2200.473211545,2200.471211545,-0.114,0.061,0.993,0.0,0.0,-0.061
2200483433461,2200481433461,2200.483433461,2200.481433461,-0.114,0.061,0.993,0.0,0.0,-0.061
2200493648086,2200491648086,2200.493648086,2200.491648086,-0.114,0.061,0.993,0.0,0.0,-0.061
2200503891293,2200501891293,2200.503891293,2200.501891293,-0.114,0.061,0.993,0.0,0.0,-0.061
2200514082584,2200512082584,2200.514082584,2200.512082584,-0.114,0.061,0.993,0.0,0.0,-0.061
2200524305375,2200522305375,2200.524305375,2200.522305375,-0.114,0.061,0.993,0.0,0.0,-0.061
2200534525250,2200532525250,2200.53452525,2200.53252525,-0.114,0.061,0.993,0.0,0.0,-0.061
2200544905539,2200542905539,2200.544905539,2200.542905539,-0.114,0.061,0.993,0.0,0.0,-0.061
2200555140580,2200553140580,2200.55514058,2200.55314058,-0.114,0.061,0.993,0.0,0.0,-0.061
2200565411203,2200563411203,2200.565411203,2200.563411203,-0.114,0.061,0.993,0.0,0.0,-0.061
2200575554662,2200573554662,2200.575554662,2200.573554662,-0.114,0.061,0.993,0.0,0.0,-0.061
2200585771036,2200583771036,2200.585771036,2200.583771036,-0.114,0.061,0.993,0.0,0.0,-0.061
2200596007244,2200594007244,2200.596007244,2200.594007244,-0.114,0.061,0.993,0.0,0.0,-0.061
2200606206119,2200604206119,2200.606206119,2200.604206119,-0.114,0.061,0.993,0.0,0.0,-0.061
2200616489867,2200614489867,2200.616489867,2200.614489867,-0.114,0.061,0.993,0.0,0.0,0.0
2200626695158,2200624695158,2200.626695158,2200.624695158,-0.114,0.061,0.993,0.0,0.0,-0.061
2200636921158,2200634921158,2200.636921158,2200.634921158,-0.114,0.061,0.993,0.0,0.0,-0.061
2200647123240,2200645123240,2200.64712324,2200.64512324,-0.114,0.062,0.993,0.0,0.0,-0.061
2200657396198,2200655396198,2200.657396198,2200.655396198,-0.114,0.062,0.993,0.0,0.0,-0.061
2200667590406,2200665590406,2200.667590406,2200.665590406,-0.114,0.062,0.993,0.0,0.0,0.0
2200677816113,2200675816113,2200.677816113,2200.675816113,-0.114,0.062,0.993,0.0,0.0,-0.061
2200688000988,2200686000988,2200.688000988,2200.686000988,-0.114,0.062,0.993,0.0,0.0,-0.061
2200698233112,2200696233112,2200.698233112,2200.696233112,-0.114,0.062,0.993,0.0,0.0,-0.061
2200708435195,2200706435195,2200.708435195,2200.706435195,-0.114,0.062,0.993,0.0,0.0,-0.061
2200718492321,2200716492321,2200.718492321,2200.716492321,-0.114,0.062,0.993,0.0,0.0,-0.061
2200728700238,2200726700238,2200.728700238,2200.726700238,-0.114,0.062,0.993,0.0,0.0,-0.122
2200739095401,2200737095401,2200.739095401,2200.737095401,-0.114,0.062,0.993,0.0,0.0,-0.122
2200749317609,2200747317609,2200.749317609,2200.747317609,-0.114,0.062,0.993,0.0,0.0,-0.122
2200759534567,2200757534567,2200.759534567,2200.757534567,-0.114,0.062,0.993,0.0,0.0,-0.061
2200769920689,2200767920689,2200.769920689,2200.767920689,-0.114,0.062,0.993,0.0,0.0,-0.061
2200780128897,2200778128897,2200.780128897,2200.778128897,-0.114,0.062,0.993,0.0,0.0,-0.061
2200790414687,2200788414687,2200.790414687,2200.788414687,-0.114,0.062,0.993,0.0,0.0,-0.122
2200800573896,2200798573896,2200.800573896,2200.798573896,-0.114,0.062,0.993,0.0,0.0,-0.122
2200810802228,2200808802228,2200.810802228,2200.808802228,-0.114,0.062,0.993,0.0,0.0,-0.122
2200821008686,2200819008686,2200.821008686,2200.819008686,-0.114,0.062,0.993,0.0,0.0,-0.122
2200831235560,2200829235560,2200.83123556,2200.82923556,-0.114,0.062,0.993,0.0,0.0,-0.122
2200841446685,2200839446685,2200.841446685,2200.839446685,-0.114,0.062,0.993,0.0,0.0,-0.122
2200851676476,2200849676476,2200.851676476,2200.849676476,-0.114,0.062,0.993,0.0,0.0,-0.122
2200861972766,2200859972766,2200.861972766,2200.859972766,-0.114,0.062,0.993,0.0,0.0,-0.122
2200871942685,2200869942685,2200.871942685,2200.869942685,-0.114,0.062,0.993,0.0,0.0,-0.122
2200882178017,2200880178017,2200.882178017,2200.880178017,-0.114,0.062,0.993,0.0,0.0,-0.122
2200892553056,2200890553056,2200.892553056,2200.890553056,-0.114,0.062,0.993,0.0,0.0,-0.122
2200902770597,2200900770597,2200.902770597,2200.900770597,-0.113,0.062,0.993,0.0,0.0,-0.122
2200913033346,2200911033346,2200.913033346,2200.911033346,-0.113,0.062,0.993,0.0,0.0,-0.122
2200923219388,2200921219388,2200.923219388,2200.921219388,-0.113,0.062,0.993,0.0,0.0,-0.122
2200933427304,2200931427304,2200.933427304,2200.931427304,-0.113,0.062,0.993,0.0,0.0,-0.122
2200943658845,2200941658845,2200.943658845,2200.941658845,-0.113,0.062,0.993,0.0,0.0,-0.122
2200953919260,2200951919260,2200.95391926,2200.95191926,-0.113,0.062,0.993,0.0,0.0,-0.122
2200964082260,2200962082260,2200.96408226,2200.96208226,-0.113,0.062,0.993,0.0,0.0,-0.122
2200974331009,2200972331009,2200.974331009,2200.972331009,-0.113,0.062,0.993,0.0,0.0,-0.122
2200984550300,2200982550300,2200.9845503,2200.9825503,-0.113,0.062,0.993,0.0,0.0,-0.122
2200994767841,2200992767841,2200.994767841,2200.992767841,-0.113,0.062,0.993,0.0,0.0,-0.122
2201004908967,2201002908967,2201.004908967,2201.002908967,-0.113,0.062,0.993,0.0,0.0,-0.122
2201015205257,2201013205257,2201.015205257,2201.013205257,-0.113,0.062,0.993,0.0,0.0,-0.122
2201025228550,2201023228550,2201.02522855,2201.02322855,-0.113,0.062,0.993,0.0,0.0,-0.122
2201035446966,2201033446966,2201.035446966,2201.033446966,-0.113,0.062,0.993,0.0,0.0,0.0
2201045677049,2201043677049,2201.045677049,2201.043677049,-0.113,0.062,0.993,0.0,0.0,-0.122
2201056047421,2201054047421,2201.056047421,2201.054047421,-0.113,0.062,0.993,0.0,0.0,-0.122
2201066237254,2201064237254,2201.066237254,2201.064237254,-0.113,0.062,0.993,0.0,0.0,-0.122
2201076396171,2201074396171,2201.076396171,2201.074396171,-0.113,0.062,0.993,0.0,0.0,-0.122
2201086678170,2201084678170,2201.08667817,2201.08467817,-0.113,0.062,0.993,0.0,0.0,-0.122
2201096948793,2201094948793,2201.096948793,2201.094948793,-0.113,0.062,0.993,0.0,0.0,-0.122
2201107163418,2201105163418,2201.107163418,2201.105163418,-0.113,0.062,0.993,0.0,0.0,-0.122
2201117363751,2201115363751,2201.117363751,2201.115363751,-0.113,0.062,0.993,0.0,0.0,-0.122
2201127578375,2201125578375,2201.127578375,2201.125578375,-0.113,0.062,0.993,0.0,0.0,-0.122
2201137811958,2201135811958,2201.137811958,2201.135811958,-0.113,0.062,0.993,0.0,0.0,-0.122
2201148043207,2201146043207,2201.148043207,2201.146043207,-0.113,0.062,0.993,0.0,0.0,-0.122
2201158422621,2201156422621,2201.158422621,2201.156422621,-0.114,0.062,0.993,0.0,0.0,-0.122
2201168459039,2201166459039,2201.168459039,2201.166459039,-0.114,0.062,0.993,0.0,0.0,0.0
2201178666080,2201176666080,2201.17866608,2201.17666608,-0.114,0.062,0.993,0.0,0.0,-0.122
2201188918913,2201186918913,2201.188918913,2201.186918913,-0.114,0.062,0.993,0.0,0.0,-0.122
2201199109329,2201197109329,2201.199109329,2201.197109329,-0.114,0.062,0.993,0.0,0.0,-0.122
2201209525493,2201207525493,2201.209525493,2201.207525493,-0.114,0.062,0.993,0.0,0.0,-0.122
2201219721159,2201217721159,2201.219721159,2201.217721159,-0.114,0.062,0.993,0.0,0.0,-0.122
2201229931409,2201227931409,2201.229931409,2201.227931409,-0.114,0.062,0.993,0.0,0.0,-0.122
2201240157408,2201238157408,2201.240157408,2201.238157408,-0.114,0.062,0.993,0.0,0.0,-0.122
2201250451365,2201248451365,2201.250451365,2201.248451365,-0.114,0.062,0.993,0.0,0.0,-0.122
2201260588990,2201258588990,2201.26058899,2201.25858899,-0.114,0.062,0.993,0.0,0.0,-0.122
2201270982987,2201268982987,2201.270982987,2201.268982987,-0.114,0.062,0.993,0.0,0.0,-0.122
2201281211320,2201279211320,2201.28121132,2201.27921132,-0.114,0.062,0.993,0.0,0.0,-0.122
2201291427111,2201289427111,2201.291427111,2201.289427111,-0.114,0.062,0.993,0.0,0.0,-0.122
2201301639110,2201299639110,2201.30163911,2201.29963911,-0.114,0.062,0.993,0.0,0.0,-0.122
2201311677570,2201309677570,2201.31167757,2201.30967757,-0.114,0.062,0.993,0.0,0.0,-0.122
2201321915236,2201319915236,2201.321915236,2201.319915236,-0.114,0.062,0.993,0.0,0.0,-0.122
2201332125777,2201330125777,2201.332125777,2201.330125777,-0.114,0.062,0.993,0.0,0.0,-0.122
2201342340985,2201340340985,2201.342340985,2201.340340985,-0.114,0.062,0.993,0.0,0.0,-0.122
2201352553568,2201350553568,2201.352553568,2201.350553568,-0.114,0.062,0.993,0.0,0.0,0.0
2201362788608,2201360788608,2201.362788608,2201.360788608,-0.114,0.062,0.993,0.0,0.0,-0.122
2201373053107,2201371053107,2201.373053107,2201.371053107,-0.114,0.062,0.993,0.0,0.0,-0.122
2201383217274,2201381217274,2201.383217274,2201.381217274,-0.114,0.062,0.993,0.0,0.0,-0.122
2201393596980,2201391596980,2201.39359698,2201.39159698,-0.114,0.062,0.993,0.0,0.0,0.0
2201403824146,2201401824146,2201.403824146,2201.401824146,-0.114,0.062,0.993,0.0,0.0,-0.122
2201414044020,2201412044020,2201.41404402,2201.41204402,-0.114,0.061,0.993,0.0,0.0,-0.122
2201424278769,2201422278769,2201.424278769,2201.422278769,-0.114,0.061,0.993,0.0,0.0,-0.122
2201434481435,2201432481435,2201.434481435,2201.432481435,-0.114,0.061,0.993,0.0,0.0,-0.122
2201444543520,2201442543520,2201.44454352,2201.44254352,-0.114,0.061,0.993,0.0,0.0,-0.122
2201454748811,2201452748811,2201.454748811,2201.452748811,-0.114,0.061,0.993,0.0,0.0,-0.122
2201464968686,2201462968686,2201.464968686,2201.462968686,-0.114,0.061,0.993,0.0,0.0,-0.122
2201475356266,2201473356266,2201.475356266,2201.473356266,-0.114,0.061,0.993,0.0,0.0,-0.122
2201485655765,2201483655765,2201.485655765,2201.483655765,-0.114,0.061,0.993,0.0,0.0,-0.122
2201495796307,2201493796307,2201.495796307,2201.493796307,-0.114,0.061,0.993,0.0,0.0,-0.122
2201506024056,2201504024056,2201.506024056,2201.504024056,-0.114,0.061,0.993,0.0,0.0,-0.122
2201524520745,2201522520745,2201.524520745,2201.522520745,-0.114,0.061,0.993,0.0,0.0,-0.122
2201534284750,2201532284750,2201.53428475,2201.53228475,-0.115,0.061,0.993,0.0,0.0,-0.122
2201544946202,2201542946202,2201.544946202,2201.542946202,-0.115,0.061,0.993,0.0,0.0,0.0
2201555148577,2201553148577,2201.555148577,2201.553148577,-0.115,0.061,0.993,0.0,0.0,-0.061
2201565261994,2201563261994,2201.565261994,2201.563261994,-0.115,0.061,0.993,0.0,0.0,-0.061
2201575460869,2201573460869,2201.575460869,2201.573460869,-0.115,0.061,0.993,0.0,0.0,-0.122
2201585679285,2201583679285,2201.585679285,2201.583679285,-0.115,0.061,0.993,0.0,0.0,-0.122
2201595893326,2201593893326,2201.595893326,2201.593893326,-0.115,0.061,0.993,0.0,0.0,-0.122
2201606130408,2201604130408,2201.606130408,2201.604130408,-0.115,0.061,0.993,0.0,0.0,-0.061
2201616325491,2201614325491,2201.616325491,2201.614325491,-0.115,0.061,0.993,0.0,0.0,-0.061
