MonoNS,EstNS,MonoS,EstS,t_unix,AccX,AccY,AccZ,AsX,AsY,AsZ,HX,HY,HZ,AngX,AngY,AngZ,TemperatureC
351045690821,351043690821,351.045690821,351.043690821,1768044166.3225372,-0.021,0.091,0.996,-0.122,0.122,-0.671,-39.975,-38.389,-47.476,5.191,1.184,-159.196,
351059712523,351057712523,351.059712523,351.057712523,1768044166.3364122,-0.021,0.089,0.997,-0.061,0.122,-0.671,-39.923,-38.337,-47.463,5.19,1.186,-159.206,
351069544484,351067544484,351.069544484,351.067544484,1768044166.346628,-0.021,0.089,0.997,-0.061,0.122,0.0,-39.871,-38.337,-47.502,5.188,1.187,-159.213,
351083639977,351081639977,351.083639977,351.081639977,1768044166.3568783,-0.021,0.089,0.997,-0.061,0.122,-0.671,-39.871,-38.363,-47.515,5.187,1.189,-159.221,
351091353881,351089353881,351.091353881,351.089353881,1768044166.3671737,-0.021,0.089,0.997,0.0,0.122,-0.671,-39.845,-38.376,-47.528,5.186,1.191,-159.228,
351102314579,351100314579,351.102314579,351.100314579,1768044166.3773427,-0.021,0.089,0.997,0.0,0.122,-0.671,-39.845,-38.363,-47.515,5.185,1.192,-159.235,
351110152149,351108152149,351.110152149,351.108152149,1768044166.387475,-0.021,0.089,0.997,0.0,0.122,0.0,-39.845,-38.363,-47.528,5.184,1.194,-159.242,
351120376397,351118376397,351.120376397,351.118376397,1768044166.3976932,-0.021,0.089,0.997,0.0,0.122,-0.671,-39.845,-38.363,-47.541,5.184,1.195,-159.25,
351130693395,351128693395,351.130693395,351.128693395,1768044166.4079702,-0.021,0.089,0.997,0.0,0.122,-0.671,-40.014,-38.688,-47.515,5.183,1.197,-159.257,
351140904227,351138904227,351.140904227,351.138904227,1768044166.4181783,-0.021,0.089,0.997,0.0,0.122,-0.671,-39.936,-38.467,-47.372,5.183,1.198,-159.265,
351151131684,351149131684,351.151131684,351.149131684,1768044166.4283888,-0.021,0.089,0.997,0.0,0.122,-0.671,-39.897,-38.402,-47.333,5.183,1.199,-159.272,
351161490389,351159490389,351.161490389,351.159490389,1768044166.4387672,-0.021,0.089,0.997,0.061,0.061,-0.671,-39.884,-38.376,-47.372,5.183,1.201,-159.279,
351171754887,351169754887,351.171754887,351.169754887,1768044166.4489956,-0.021,0.089,0.997,0.061,0.061,-0.671,-39.871,-38.389,-47.424,5.184,1.202,-159.286,
351181935678,351179935678,351.181935678,351.179935678,1768044166.459233,-0.021,0.089,0.997,0.061,0.061,-0.671,-39.871,-38.376,-47.463,5.184,1.203,-159.293,
351192173051,351190173051,351.192173051,351.190173051,1768044166.4694664,-0.022,0.088,0.997,0.061,0.061,-0.671,-39.845,-38.363,-47.502,5.185,1.204,-159.3,
351202380966,351200380966,351.202380966,351.200380966,1768044166.4796343,-0.022,0.088,0.997,0.122,0.061,-0.671,-39.858,-38.376,-47.476,5.185,1.206,-159.308,
351212722464,351210722464,351.212722464,351.210722464,1768044166.490022,-0.022,0.089,0.997,0.122,0.061,-0.671,-39.845,-38.376,-47.489,5.186,1.207,-159.315,
351222769964,351220769964,351.222769964,351.220769964,1768044166.5000758,-0.022,0.088,0.997,0.122,0.061,-0.671,-40.092,-38.74,-47.58,5.187,1.209,-159.322,
351233086378,351231086378,351.233086378,351.231086378,1768044166.510412,-0.022,0.088,0.997,0.122,0.061,-0.671,-39.936,-38.519,-47.476,5.187,1.21,-159.329,
351243547457,351241547457,351.243547457,351.241547457,1768044166.5207877,-0.022,0.088,0.997,0.183,0.061,-0.671,-39.845,-38.415,-47.398,5.189,1.211,-159.336,
351253794747,351251794747,351.253794747,351.251794747,1768044166.5309966,-0.022,0.088,0.997,0.183,0.0,-0.671,-39.845,-38.402,-47.437,5.19,1.212,-159.343,
351266035262,351264035262,351.266035262,351.264035262,1768044166.543234,-0.022,0.088,0.997,0.183,0.0,-0.671,-39.845,-38.402,-47.554,5.191,1.213,-159.352,
351276032305,351274032305,351.276032305,351.274032305,1768044166.5533547,-0.022,0.088,0.997,0.244,0.0,-0.671,-39.806,-38.402,-47.606,5.193,1.214,-159.359,
351286276095,351284276095,351.286276095,351.284276095,1768044166.5635822,-0.022,0.088,0.997,0.244,0.0,-0.671,-39.806,-38.415,-47.502,5.194,1.215,-159.366,
351296547885,351294547885,351.296547885,351.294547885,1768044166.5738254,-0.022,0.088,0.997,0.244,0.0,-0.671,-39.819,-38.415,-47.463,5.196,1.215,-159.373,
351306994672,351304994672,351.306994672,351.304994672,1768044166.5841947,-0.022,0.088,0.997,0.244,0.0,-0.671,-39.845,-38.454,-47.502,5.198,1.216,-159.38,
351318301574,351316301574,351.318301574,351.316301574,1768044166.5943017,-0.023,0.088,0.996,0.244,0.0,-0.671,-39.936,-38.584,-47.671,5.2,1.216,-159.387,
351327211589,351325211589,351.327211589,351.325211589,1768044166.6045055,-0.023,0.088,0.996,0.244,0.0,-0.671,-39.845,-38.467,-47.632,5.201,1.217,-159.394,
351337434671,351335434671,351.337434671,351.335434671,1768044166.6146905,-0.023,0.088,0.996,0.244,0.0,-0.671,-39.819,-38.402,-47.45,5.203,1.218,-159.402,
351347628295,351345628295,351.347628295,351.345628295,1768044166.6249094,-0.023,0.088,0.996,0.244,0.0,-0.671,-39.845,-38.376,-47.437,5.205,1.218,-159.408,
351357848752,351355848752,351.357848752,351.355848752,1768044166.6351302,-0.023,0.088,0.996,0.305,-0.061,-0.671,-39.845,-38.402,-47.437,5.207,1.219,-159.415,
351368093125,351366093125,351.368093125,351.366093125,1768044166.6453483,-0.023,0.088,0.996,0.305,-0.061,-0.671,-39.845,-38.389,-47.45,5.209,1.219,-159.422,
351378292874,351376292874,351.378292874,351.376292874,1768044166.6555667,-0.023,0.088,0.996,0.305,-0.061,-0.671,-39.845,-38.415,-47.437,5.21,1.219,-159.429,
351388357874,351386357874,351.388357874,351.386357874,1768044166.6656315,-0.023,0.088,0.996,0.305,-0.061,-0.671,-39.832,-38.415,-47.463,5.212,1.219,-159.437,
351398748663,351396748663,351.398748663,351.396748663,1768044166.6760032,-0.023,0.088,0.996,0.305,-0.061,-0.671,-39.832,-38.415,-47.567,5.214,1.219,-159.443,
351408927995,351406927995,351.408927995,351.406927995,1768044166.6862068,-0.023,0.088,0.996,0.305,-0.122,-0.671,-39.91,-38.545,-47.632,5.216,1.218,-159.45,
351419107911,351417107911,351.419107911,351.417107911,1768044166.69643,-0.023,0.088,0.996,0.305,-0.122,-0.61,-39.897,-38.467,-47.463,5.218,1.218,-159.457,
351429224536,351427224536,351.429224536,351.427224536,1768044166.7064972,-0.023,0.088,0.996,0.305,-0.122,0.0,-39.845,-38.454,-47.411,5.22,1.217,-159.463,
351439550866,351437550866,351.439550866,351.437550866,1768044166.716877,-0.023,0.089,0.996,0.305,-0.122,-0.61,-39.806,-38.428,-47.398,5.222,1.217,-159.471,
351449805739,351447805739,351.449805739,351.447805739,1768044166.72708,-0.023,0.089,0.996,0.305,-0.183,-0.61,-39.806,-38.441,-47.424,5.224,1.216,-159.477,
351460223944,351458223944,351.460223944,351.458223944,1768044166.7374973,-0.023,0.089,0.996,0.305,-0.183,-0.61,-39.819,-38.441,-47.437,5.226,1.215,-159.484,
351470423693,351468423693,351.470423693,351.468423693,1768044166.7476954,-0.023,0.089,0.996,0.305,-0.183,-0.61,-39.832,-38.454,-47.45,5.229,1.215,-159.491,
351480641525,351478641525,351.480641525,351.478641525,1768044166.7579129,-0.023,0.089,0.996,0.305,-0.183,-0.61,-39.858,-38.441,-47.437,5.231,1.214,-159.498,
351490871315,351488871315,351.490871315,351.488871315,1768044166.7681277,-0.023,0.089,0.996,0.244,-0.244,-0.61,-39.832,-38.454,-47.476,5.233,1.213,-159.505,
351501062605,351499062605,351.501062605,351.499062605,1768044166.7783415,-0.023,0.089,0.996,0.244,-0.244,-0.61,-40.027,-38.844,-47.541,5.234,1.211,-159.511,
351511194105,351509194105,351.511194105,351.509194105,1768044166.7885172,-0.023,0.089,0.996,0.244,-0.244,-0.61,-39.91,-38.623,-47.45,5.236,1.21,-159.518,
351521346313,351519346313,351.521346313,351.519346313,1768044166.7986238,-0.023,0.089,0.996,0.244,-0.244,-0.61,-39.845,-38.467,-47.359,5.238,1.209,-159.525,
351531565020,351529565020,351.53156502,351.52956502,1768044166.8088233,-0.023,0.089,0.996,0.244,-0.244,-0.61,-39.819,-38.454,-47.398,5.239,1.207,-159.531,
351541775269,351539775269,351.541775269,351.539775269,1768044166.8190503,-0.023,0.089,0.996,0.244,-0.244,-0.61,-39.819,-38.467,-47.398,5.241,1.206,-159.538,
351551946726,351549946726,351.551946726,351.549946726,1768044166.8292708,-0.023,0.089,0.996,0.244,-0.305,-0.61,-39.819,-38.467,-47.411,5.242,1.204,-159.545,
351562182058,351560182058,351.562182058,351.560182058,1768044166.8395023,-0.023,0.089,0.996,0.244,-0.305,0.0,-39.832,-38.48,-47.424,5.243,1.203,-159.551,
351572596471,351570596471,351.572596471,351.570596471,1768044166.8498716,-0.024,0.09,0.995,0.183,-0.305,-0.61,-39.819,-38.48,-47.411,5.245,1.201,-159.558,
351582762387,351580762387,351.582762387,351.580762387,1768044166.8600879,-0.024,0.09,0.995,0.183,-0.305,-0.61,-39.832,-38.467,-47.411,5.247,1.199,-159.565,
351593554503,351591554503,351.593554503,351.591554503,1768044166.8705437,-0.024,0.09,0.995,0.183,-0.305,-0.61,-40.04,-38.818,-47.619,5.248,1.197,-159.572,
351603671128,351601671128,351.603671128,351.601671128,1768044166.8808017,-0.024,0.09,0.995,0.183,-0.366,-0.61,-39.91,-38.597,-47.528,5.25,1.195,-159.578,
351613220760,351611220760,351.61322076,351.61122076,1768044166.8905234,-0.024,0.09,0.995,0.183,-0.366,-0.61,-39.819,-38.493,-47.528,5.251,1.193,-159.585,
351623682422,351621682422,351.623682422,351.621682422,1768044166.900953,-0.024,0.09,0.995,0.183,-0.366,-0.61,-39.806,-38.467,-47.424,5.252,1.191,-159.592,
351633912212,351631912212,351.633912212,351.631912212,1768044166.9111707,-0.024,0.09,0.995,0.183,-0.366,-0.61,-39.819,-38.493,-47.411,5.253,1.189,-159.599,
351644100003,351642100003,351.644100003,351.642100003,1768044166.9213781,-0.024,0.09,0.995,0.122,-0.366,-0.61,-39.832,-38.493,-47.385,5.254,1.186,-159.605,
351654332126,351652332126,351.654332126,351.652332126,1768044166.9316087,-0.024,0.09,0.995,0.122,-0.366,0.0,-39.819,-38.493,-47.385,5.255,1.184,-159.612,
351664534792,351662534792,351.664534792,351.662534792,1768044166.9417677,-0.024,0.09,0.995,0.122,-0.366,-0.61,-39.819,-38.506,-47.385,5.256,1.182,-159.619,
351674750290,351672750290,351.67475029,351.67275029,1768044166.9520242,-0.024,0.09,0.995,0.122,-0.366,-0.61,-39.793,-38.519,-47.372,5.257,1.179,-159.625,
351684968706,351682968706,351.684968706,351.682968706,1768044166.9622495,-0.024,0.09,0.995,0.122,-0.366,-0.61,-39.858,-38.558,-47.619,5.257,1.177,-159.632,
351695222121,351693222121,351.695222121,351.693222121,1768044166.972496,-0.023,0.091,0.995,0.061,-0.427,-0.61,-39.884,-38.584,-47.45,5.258,1.174,-159.638,
351705391536,351703391536,351.705391536,351.703391536,1768044166.9826708,-0.023,0.091,0.995,0.061,-0.427,-0.61,-39.819,-38.506,-47.333,5.259,1.172,-159.645,
351715611702,351713611702,351.715611702,351.713611702,1768044166.9928937,-0.023,0.091,0.995,0.061,-0.427,-0.61,-39.806,-38.493,-47.346,5.259,1.169,-159.652,
351725829825,351723829825,351.725829825,351.723829825,1768044167.0031097,-0.023,0.091,0.995,0.061,-0.427,-0.61,-39.819,-38.506,-47.346,5.26,1.166,-159.658,
351735867993,351733867993,351.735867993,351.733867993,1768044167.013145,-0.023,0.091,0.995,0.061,-0.427,-0.61,-39.832,-38.519,-47.346,5.26,1.164,-159.665,
351746276572,351744276572,351.746276572,351.744276572,1768044167.0235393,-0.023,0.091,0.995,0.0,-0.427,-0.61,-39.832,-38.48,-47.346,5.261,1.161,-159.671,
351756490613,351754490613,351.756490613,351.754490613,1768044167.033757,-0.023,0.091,0.995,0.0,-0.427,-0.61,-39.832,-38.506,-47.346,5.261,1.158,-159.678,
351766866526,351764866526,351.766866526,351.764866526,1768044167.0441387,-0.023,0.091,0.995,0.0,-0.427,-0.61,-39.832,-38.519,-47.346,5.261,1.156,-159.685,
351777108566,351775108566,351.777108566,351.775108566,1768044167.0543618,-0.023,0.091,0.995,0.0,-0.427,-0.61,-39.884,-38.649,-47.502,5.261,1.153,-159.691,
351787145859,351785145859,351.787145859,351.785145859,1768044167.0643947,-0.023,0.091,0.995,0.0,0.0,-0.61,-39.923,-38.701,-47.411,5.261,1.155,-159.698,
351797344441,351795344441,351.797344441,351.795344441,1768044167.0746245,-0.023,0.091,0.995,0.0,0.0,-0.61,-39.858,-38.571,-47.333,5.261,1.157,-159.705,
351807510940,351805510940,351.80751094,351.80551094,1768044167.084789,-0.023,0.091,0.995,0.0,0.0,-0.61,-39.819,-38.506,-47.307,5.26,1.159,-159.712,
351817786813,351815786813,351.817786813,351.815786813,1768044167.095046,-0.022,0.092,0.995,0.0,0.0,-0.61,-39.832,-38.532,-47.333,5.26,1.16,-159.718,
351827980437,351825980437,351.827980437,351.825980437,1768044167.105259,-0.022,0.092,0.995,0.0,0.0,-0.61,-39.845,-38.545,-47.333,5.26,1.162,-159.725,
351838223352,351836223352,351.838223352,351.836223352,1768044167.115495,-0.022,0.092,0.995,0.0,0.0,-0.61,-39.845,-38.532,-47.32,5.26,1.163,-159.731,
351848419601,351846419601,351.848419601,351.846419601,1768044167.1256928,-0.022,0.092,0.995,0.0,0.0,-0.61,-39.845,-38.545,-47.268,5.261,1.164,-159.738,
351858639766,351856639766,351.858639766,351.856639766,1768044167.1359174,-0.022,0.092,0.995,0.0,0.0,-0.61,-39.858,-38.558,-47.242,5.261,1.166,-159.745,
351875100062,351873100062,351.875100062,351.873100062,1768044167.146122,-0.022,0.092,0.995,0.0,0.0,-0.61,-39.988,-38.766,-47.32,5.261,1.167,-159.751,
351882793259,351880793259,351.882793259,351.880793259,1768044167.1572323,-0.022,0.092,0.995,0.0,0.0,-0.61,-39.988,-38.753,-47.294,5.261,1.168,-159.758,
351891296695,351889296695,351.891296695,351.889296695,1768044167.1674452,-0.022,0.092,0.995,0.0,0.0,-0.61,-39.858,-38.61,-47.346,5.261,1.17,-159.765,
351902216269,351900216269,351.902216269,351.900216269,1768044167.1792955,-0.022,0.092,0.995,0.0,0.0,-0.61,-39.819,-38.545,-47.32,5.262,1.171,-159.773,
351912436434,351910436434,351.912436434,351.910436434,1768044167.1895156,-0.022,0.092,0.995,0.0,0.0,-0.61,-39.832,-38.571,-47.294,5.262,1.172,-159.779,
351922551892,351920551892,351.922551892,351.920551892,1768044167.1997285,-0.022,0.092,0.995,0.0,0.0,-0.61,-39.832,-38.558,-47.268,5.262,1.174,-159.787,
351932881431,351930881431,351.932881431,351.930881431,1768044167.209969,-0.022,0.092,0.995,0.0,0.0,-0.61,-39.845,-38.558,-47.281,5.262,1.175,-159.793,
351943089930,351941089930,351.94308993,351.94108993,1768044167.220165,-0.022,0.092,0.995,0.0,0.0,-0.61,-39.845,-38.571,-47.281,5.262,1.176,-159.8,
351953178847,351951178847,351.953178847,351.951178847,1768044167.2303329,-0.021,0.092,0.995,0.0,0.0,-0.61,-39.832,-38.545,-47.268,5.262,1.177,-159.806,
351963533469,351961533469,351.963533469,351.961533469,1768044167.2405963,-0.021,0.092,0.995,0.0,0.0,-0.61,-39.975,-38.727,-47.567,5.263,1.177,-159.814,
351973580094,351971580094,351.973580094,351.971580094,1768044167.2507896,-0.021,0.092,0.995,0.0,0.0,-0.61,-39.91,-38.623,-47.398,5.263,1.178,-159.82,
351983849842,351981849842,351.983849842,351.981849842,1768044167.2610283,-0.021,0.092,0.995,0.0,0.0,-0.61,-39.858,-38.545,-47.333,5.263,1.179,-159.827,
351994511002,351992511002,351.994511002,351.992511002,1768044167.2716122,-0.021,0.092,0.995,0.0,0.0,-0.61,-39.832,-38.519,-47.32,5.263,1.179,-159.834,
352004475962,352002475962,352.004475962,352.002475962,1768044167.2817142,-0.021,0.092,0.995,0.0,0.0,-0.61,-39.793,-38.532,-47.398,5.264,1.18,-159.841,
352014537088,352012537088,352.014537088,352.012537088,1768044167.2918983,-0.021,0.092,0.995,0.0,0.0,-0.61,-39.793,-38.558,-47.463,5.264,1.18,-159.848,
352024562589,352022562589,352.024562589,352.022562589,1768044167.301929,-0.021,0.092,0.995,0.0,0.0,-0.671,-39.793,-38.558,-47.398,5.264,1.181,-159.854,
352034774296,352032774296,352.034774296,352.032774296,1768044167.3121457,-0.021,0.092,0.995,0.0,0.0,-0.671,-39.806,-38.558,-47.346,5.264,1.182,-159.861,
352044821505,352042821505,352.044821505,352.042821505,1768044167.3222008,-0.021,0.092,0.995,0.0,0.0,-0.671,-39.819,-38.571,-47.32,5.264,1.182,-159.868,
352054872505,352052872505,352.054872505,352.052872505,1768044167.332247,-0.021,0.092,0.995,0.0,0.0,-0.671,-39.806,-38.597,-47.541,5.265,1.183,-159.875,
352065195336,352063195336,352.065195336,352.063195336,1768044167.3424919,-0.021,0.092,0.995,0.0,0.0,-0.671,-39.884,-38.688,-47.385,5.265,1.183,-159.882,
352075220670,352073220670,352.07522067,352.07322067,1768044167.3525126,-0.021,0.091,0.995,0.0,0.0,-0.671,-39.871,-38.597,-47.281,5.265,1.184,-159.888,
352085199922,352083199922,352.085199922,352.083199922,1768044167.362548,-0.021,0.091,0.995,0.0,0.0,0.0,-39.819,-38.558,-47.242,5.265,1.184,-159.895,
352095257048,352093257048,352.095257048,352.093257048,1768044167.3726063,-0.021,0.091,0.995,0.0,0.0,-0.671,-39.806,-38.558,-47.268,5.265,1.184,-159.903,
352105457671,352103457671,352.105457671,352.103457671,1768044167.3828077,-0.021,0.091,0.995,0.0,0.0,-0.671,-39.806,-38.571,-47.294,5.265,1.184,-159.909,
352115518589,352113518589,352.115518589,352.113518589,1768044167.3928673,-0.021,0.091,0.995,0.0,0.0,-0.671,-39.806,-38.584,-47.294,5.264,1.185,-159.916,
352125546548,352123546548,352.125546548,352.123546548,1768044167.4028978,-0.021,0.091,0.995,0.0,0.0,-0.671,-39.806,-38.597,-47.281,5.264,1.185,-159.923,
352135770213,352133770213,352.135770213,352.133770213,1768044167.4131212,-0.021,0.091,0.995,0.0,0.0,-0.671,-39.793,-38.597,-47.294,5.264,1.185,-159.93,
352145834630,352143834630,352.14583463,352.14383463,1768044167.4231677,-0.021,0.091,0.995,0.0,0.0,-0.671,-39.806,-38.584,-47.346,5.264,1.185,-159.937,
352155884464,352153884464,352.155884464,352.153884464,1768044167.4332106,-0.021,0.091,0.995,0.0,0.0,-0.671,-39.975,-38.909,-47.372,5.264,1.185,-159.944,
352165912132,352163912132,352.165912132,352.163912132,1768044167.443256,-0.021,0.091,0.995,0.0,0.0,-0.671,-39.845,-38.688,-47.294,5.264,1.186,-159.951,
352176122381,352174122381,352.176122381,352.174122381,1768044167.4534492,-0.021,0.091,0.995,0.0,0.0,-0.671,-39.793,-38.597,-47.255,5.264,1.186,-159.958,
352186171340,352184171340,352.18617134,352.18417134,1768044167.4635248,-0.021,0.091,0.995,0.0,0.0,0.0,-39.78,-38.584,-47.255,5.264,1.186,-159.965,
352196255007,352194255007,352.196255007,352.194255007,1768044167.4735696,-0.021,0.091,0.995,0.0,0.0,-0.671,-39.78,-38.61,-47.281,5.264,1.186,-159.973,
352206425589,352204425589,352.206425589,352.204425589,1768044167.4837832,-0.021,0.09,0.995,0.0,0.0,-0.671,-39.793,-38.61,-47.307,5.263,1.186,-159.98,
352216579255,352214579255,352.216579255,352.214579255,1768044167.4938543,-0.021,0.09,0.995,0.0,0.0,-0.671,-39.793,-38.623,-47.294,5.263,1.186,-159.987,
352226535466,352224535466,352.226535466,352.224535466,1768044167.5038874,-0.021,0.09,0.995,0.0,0.0,-0.671,-39.806,-38.623,-47.307,5.262,1.187,-159.994,
352236752131,352234752131,352.236752131,352.234752131,1768044167.5141041,-0.021,0.09,0.995,0.0,0.0,-0.671,-39.819,-38.623,-47.294,5.261,1.187,-160.001,
352246856798,352244856798,352.246856798,352.244856798,1768044167.5241518,-0.021,0.09,0.995,0.0,0.0,-0.671,-39.949,-38.857,-47.437,5.261,1.187,-160.008,
352256831674,352254831674,352.256831674,352.254831674,1768044167.5341852,-0.021,0.09,0.995,0.0,0.0,-0.671,-39.897,-38.675,-47.32,5.26,1.187,-160.015,
352267049506,352265049506,352.267049506,352.265049506,1768044167.5444036,-0.021,0.09,0.995,0.0,0.0,-0.671,-39.806,-38.597,-47.281,5.26,1.187,-160.022,
352277133173,352275133173,352.277133173,352.275133173,1768044167.554487,-0.021,0.09,0.995,0.0,0.0,-0.671,-39.793,-38.558,-47.294,5.259,1.187,-160.03,
352287126424,352285126424,352.287126424,352.285126424,1768044167.5644877,-0.021,0.09,0.995,0.0,0.0,0.0,-39.806,-38.597,-47.307,5.258,1.187,-160.037,
352297348923,352295348923,352.297348923,352.295348923,1768044167.5747056,-0.021,0.09,0.995,0.0,0.0,-0.671,-39.806,-38.623,-47.307,5.258,1.187,-160.044,
352307414507,352305414507,352.307414507,352.305414507,1768044167.5847545,-0.021,0.09,0.995,0.0,0.0,-0.671,-39.793,-38.623,-47.294,5.257,1.187,-160.051,
352317448008,352315448008,352.317448008,352.315448008,1768044167.594802,-0.021,0.09,0.995,0.0,0.0,-0.671,-39.819,-38.61,-47.307,5.257,1.187,-160.059,
352327509800,352325509800,352.3275098,352.3255098,1768044167.6048658,-0.021,0.089,0.995,0.0,0.0,-0.671,-39.806,-38.623,-47.307,5.256,1.187,-160.066,
352337712465,352335712465,352.337712465,352.335712465,1768044167.6150618,-0.021,0.089,0.995,0.0,0.0,-0.671,-39.858,-38.675,-47.515,5.255,1.187,-160.073,
352347774841,352345774841,352.347774841,352.345774841,1768044167.6251183,-0.021,0.089,0.995,0.0,0.0,-0.671,-39.819,-38.649,-47.372,5.254,1.188,-160.08,
352357984215,352355984215,352.357984215,352.355984215,1768044167.6353326,-0.021,0.089,0.995,0.0,0.0,-0.671,-39.78,-38.61,-47.294,5.253,1.188,-160.087,
352368013632,352366013632,352.368013632,352.366013632,1768044167.6453655,-0.021,0.089,0.995,0.0,0.0,-0.671,-39.754,-38.584,-47.294,5.252,1.188,-160.094,
352378064633,352376064633,352.378064633,352.376064633,1768044167.6554124,-0.021,0.089,0.995,0.0,0.0,-0.671,-39.767,-38.61,-47.32,5.251,1.188,-160.101,
352388269048,352386269048,352.388269048,352.386269048,1768044167.665625,-0.021,0.089,0.995,0.0,0.0,-0.671,-39.754,-38.649,-47.32,5.25,1.188,-160.109,
352398318299,352396318299,352.398318299,352.396318299,1768044167.675673,-0.021,0.089,0.995,0.0,0.0,-0.671,-39.754,-38.623,-47.307,5.249,1.188,-160.116,
352408382133,352406382133,352.408382133,352.406382133,1768044167.6857324,-0.021,0.089,0.995,0.0,0.0,-0.671,-39.754,-38.636,-47.32,5.248,1.189,-160.123,
352418575757,352416575757,352.418575757,352.416575757,1768044167.6959305,-0.021,0.089,0.995,0.0,0.0,-0.671,-39.78,-38.636,-47.32,5.247,1.189,-160.131,
352428655924,352426655924,352.428655924,352.426655924,1768044167.7059958,-0.021,0.089,0.995,0.0,0.0,-0.671,-39.845,-38.805,-47.463,5.246,1.189,-160.138,
352438676008,352436676008,352.438676008,352.436676008,1768044167.7160265,-0.021,0.089,0.995,0.0,0.0,-0.671,-39.858,-38.792,-47.372,5.245,1.189,-160.145,
352448720009,352446720009,352.448720009,352.446720009,1768044167.7260711,-0.021,0.089,0.995,0.0,0.0,-0.671,-39.793,-38.675,-47.307,5.244,1.189,-160.152,
352458947466,352456947466,352.458947466,352.456947466,1768044167.7362971,-0.021,0.089,0.995,0.0,0.0,-0.671,-39.754,-38.623,-47.268,5.243,1.19,-160.159,
352468992633,352466992633,352.468992633,352.466992633,1768044167.74635,-0.021,0.089,0.995,0.0,0.0,-0.671,-39.754,-38.623,-47.32,5.242,1.19,-160.166,
352479058217,352477058217,352.479058217,352.477058217,1768044167.756387,-0.021,0.089,0.995,0.0,0.0,-0.671,-39.754,-38.636,-47.32,5.241,1.19,-160.174,
352489258841,352487258841,352.489258841,352.487258841,1768044167.766614,-0.021,0.089,0.995,0.0,0.0,0.0,-39.741,-38.636,-47.333,5.24,1.191,-160.181,
352499295258,352497295258,352.499295258,352.497295258,1768044167.776649,-0.021,0.089,0.995,0.0,0.0,-0.671,-39.754,-38.636,-47.32,5.239,1.191,-160.189,
352509293176,352507293176,352.509293176,352.507293176,1768044167.7866473,-0.021,0.089,0.995,0.0,0.0,-0.671,-39.793,-38.649,-47.32,5.237,1.192,-160.196,
352519565841,352517565841,352.519565841,352.517565841,1768044167.796919,-0.021,0.089,0.995,0.0,0.0,-0.671,-39.897,-38.857,-47.398,5.236,1.192,-160.203,
352529686841,352527686841,352.529686841,352.527686841,1768044167.806974,-0.021,0.089,0.995,0.0,0.0,-0.671,-39.91,-38.857,-47.398,5.235,1.193,-160.211,
352539659093,352537659093,352.539659093,352.537659093,1768044167.8170145,-0.021,0.089,0.995,0.0,0.0,-0.671,-39.793,-38.701,-47.32,5.234,1.193,-160.218,
352549703093,352547703093,352.549703093,352.547703093,1768044167.827057,-0.021,0.089,0.995,0.0,0.0,-0.671,-39.741,-38.636,-47.32,5.233,1.194,-160.225,
352559925300,352557925300,352.5599253,352.5579253,1768044167.837283,-0.021,0.089,0.995,0.0,0.0,-0.671,-39.767,-38.636,-47.32,5.232,1.194,-160.232,
352569979509,352567979509,352.569979509,352.567979509,1768044167.8473303,-0.021,0.089,0.995,0.0,0.0,-0.671,-39.754,-38.649,-47.333,5.231,1.194,-160.239,
352580062593,352578062593,352.580062593,352.578062593,1768044167.857377,-0.021,0.089,0.995,0.0,0.0,-0.671,-39.741,-38.662,-47.333,5.23,1.195,-160.246,
352590142176,352588142176,352.590142176,352.588142176,1768044167.8674843,-0.022,0.089,0.996,0.0,0.0,-0.671,-39.728,-38.649,-47.359,5.228,1.195,-160.254,
352600288259,352598288259,352.600288259,352.598288259,1768044167.877639,-0.022,0.089,0.996,0.0,0.0,-0.671,-39.754,-38.662,-47.359,5.227,1.196,-160.262,
352610343052,352608343052,352.610343052,352.608343052,1768044167.8876843,-0.022,0.089,0.996,0.0,0.0,-0.671,-39.819,-38.74,-47.476,5.226,1.197,-160.269,
352620541050,352618541050,352.62054105,352.61854105,1768044167.897897,-0.022,0.089,0.996,0.0,0.0,-0.671,-39.845,-38.766,-47.502,5.225,1.198,-160.276,
352630601968,352628601968,352.630601968,352.628601968,1768044167.9079428,-0.022,0.089,0.996,0.0,0.0,-0.671,-39.767,-38.688,-47.385,5.224,1.198,-160.283,
352640597261,352638597261,352.640597261,352.638597261,1768044167.9179482,-0.022,0.089,0.996,0.0,0.0,-0.671,-39.754,-38.649,-47.32,5.223,1.199,-160.29,
352650684428,352648684428,352.650684428,352.648684428,1768044167.9280353,-0.022,0.089,0.996,0.0,0.0,-0.671,-39.715,-38.636,-47.333,5.222,1.2,-160.297,
352660934926,352658934926,352.660934926,352.658934926,1768044167.9382515,-0.022,0.089,0.996,0.0,0.0,-0.671,-39.728,-38.636,-47.346,5.221,1.201,-160.304,
352670976593,352668976593,352.670976593,352.668976593,1768044167.9482949,-0.022,0.089,0.996,0.0,0.0,-0.671,-39.728,-38.662,-47.359,5.22,1.201,-160.311,
352681006594,352679006594,352.681006594,352.679006594,1768044167.9583468,-0.022,0.089,0.996,0.0,0.0,-0.671,-39.741,-38.662,-47.359,5.219,1.202,-160.318,
352691210135,352689210135,352.691210135,352.689210135,1768044167.968562,-0.022,0.089,0.996,0.0,0.0,0.0,-39.741,-38.675,-47.372,5.218,1.203,-160.326,
352701299635,352699299635,352.701299635,352.699299635,1768044167.9786108,-0.022,0.089,0.996,0.0,0.0,-0.671,-39.728,-38.662,-47.463,5.217,1.203,-160.333,
352711317094,352709317094,352.711317094,352.709317094,1768044167.988646,-0.022,0.089,0.996,0.0,0.0,-0.671,-39.819,-38.831,-47.502,5.216,1.204,-160.34,
352721513343,352719513343,352.721513343,352.719513343,1768044167.9988568,-0.022,0.089,0.996,0.0,0.0,-0.671,-39.78,-38.714,-47.398,5.215,1.205,-160.347,
352731627926,352729627926,352.731627926,352.729627926,1768044168.0089169,-0.022,0.089,0.996,0.0,0.0,-0.671,-39.728,-38.675,-47.333,5.214,1.206,-160.354,
352741658219,352739658219,352.741658219,352.739658219,1768044168.0189729,-0.022,0.089,0.996,0.0,0.0,-0.671,-39.715,-38.662,-47.333,5.214,1.207,-160.361,
352751831135,352749831135,352.751831135,352.749831135,1768044168.029168,-0.022,0.089,0.996,0.0,0.0,-0.671,-39.728,-38.701,-47.359,5.213,1.208,-160.368,
352761870761,352759870761,352.761870761,352.759870761,1768044168.0392191,-0.022,0.089,0.996,0.0,0.0,-0.671,-39.728,-38.688,-47.372,5.212,1.209,-160.376,
352771903970,352769903970,352.77190397,352.76990397,1768044168.0492604,-0.022,0.089,0.996,0.0,0.0,-0.671,-39.728,-38.675,-47.372,5.211,1.21,-160.383,
352781950012,352779950012,352.781950012,352.779950012,1768044168.059304,-0.022,0.089,0.996,0.0,0.0,-0.671,-39.728,-38.662,-47.359,5.211,1.21,-160.39,
352792176594,352790176594,352.792176594,352.790176594,1768044168.0695267,-0.022,0.089,0.996,0.0,0.0,-0.671,-39.728,-38.688,-47.398,5.21,1.211,-160.397,
352802220595,352800220595,352.802220595,352.800220595,1768044168.0795665,-0.022,0.089,0.996,0.0,0.0,0.0,-39.936,-39.065,-47.489,5.209,1.212,-160.404,
352812274221,352810274221,352.812274221,352.810274221,1768044168.0896194,-0.022,0.089,0.996,0.0,0.0,-0.671,-39.819,-38.857,-47.398,5.209,1.213,-160.412,
352822510719,352820510719,352.822510719,352.820510719,1768044168.0998595,-0.022,0.089,0.996,0.0,0.0,-0.671,-39.741,-38.74,-47.333,5.208,1.214,-160.419,
352832534303,352830534303,352.832534303,352.830534303,1768044168.1098785,-0.022,0.089,0.996,0.0,0.0,-0.671,-39.728,-38.688,-47.333,5.207,1.215,-160.426,
352842622929,352840622929,352.842622929,352.840622929,1768044168.1199424,-0.023,0.09,0.996,0.0,0.0,-0.671,-39.741,-38.688,-47.359,5.207,1.216,-160.433,
352852650596,352850650596,352.852650596,352.850650596,1768044168.129986,-0.023,0.09,0.996,0.0,0.0,-0.671,-39.715,-38.688,-47.346,5.206,1.217,-160.44,
352862877470,352860877470,352.86287747,352.86087747,1768044168.1401982,-0.023,0.09,0.996,0.0,0.0,-0.671,-39.702,-38.688,-47.359,5.206,1.218,-160.447,
352872890263,352870890263,352.872890263,352.870890263,1768044168.1502476,-0.023,0.09,0.996,0.0,0.0,-0.671,-39.689,-38.701,-47.359,5.206,1.219,-160.454,
352883119761,352881119761,352.883119761,352.881119761,1768044168.1604788,-0.023,0.09,0.996,0.0,0.0,-0.671,-39.702,-38.701,-47.359,5.205,1.22,-160.46,
352893143345,352891143345,352.893143345,352.891143345,1768044168.1705022,-0.023,0.09,0.996,0.0,0.0,-0.671,-39.832,-38.961,-47.528,5.205,1.221,-160.467,
352903187929,352901187929,352.903187929,352.901187929,1768044168.1805525,-0.023,0.09,0.996,0.0,0.0,0.0,-39.767,-38.844,-47.437,5.204,1.222,-160.474,
352913266346,352911266346,352.913266346,352.911266346,1768044168.1906075,-0.023,0.09,0.996,0.0,0.0,-0.671,-39.728,-38.753,-47.346,5.204,1.222,-160.482,
352923482137,352921482137,352.923482137,352.921482137,1768044168.2008233,-0.023,0.09,0.996,0.0,0.0,-0.671,-39.676,-38.688,-47.32,5.204,1.223,-160.489,
352933513304,352931513304,352.933513304,352.931513304,1768044168.2108555,-0.023,0.09,0.996,0.0,0.0,-0.671,-39.689,-38.688,-47.346,5.203,1.224,-160.496,
352943515597,352941515597,352.943515597,352.941515597,1768044168.2208622,-0.023,0.09,0.996,0.0,0.0,-0.671,-39.702,-38.701,-47.346,5.203,1.225,-160.503,
352953614431,352951614431,352.953614431,352.951614431,1768044168.230945,-0.023,0.09,0.996,0.0,0.0,-0.671,-39.702,-38.714,-47.346,5.203,1.226,-160.509,
352963807180,352961807180,352.96380718,352.96180718,1768044168.2411635,-0.023,0.09,0.996,0.0,0.0,-0.671,-39.689,-38.727,-47.346,5.202,1.227,-160.516,
352973865180,352971865180,352.97386518,352.97186518,1768044168.251216,-0.023,0.09,0.996,0.0,0.0,-0.671,-39.702,-38.74,-47.346,5.202,1.228,-160.523,
352983903931,352981903931,352.983903931,352.981903931,1768044168.2612588,-0.023,0.09,0.996,0.0,0.0,-0.671,-39.728,-38.74,-47.554,5.202,1.229,-160.53,
352994133721,352992133721,352.994133721,352.992133721,1768044168.271479,-0.023,0.09,0.996,0.0,0.0,-0.671,-39.78,-38.818,-47.476,5.202,1.23,-160.537,
353004190847,353002190847,353.004190847,353.002190847,1768044168.2815409,-0.023,0.09,0.996,0.0,0.0,-0.671,-39.728,-38.753,-47.359,5.202,1.231,-160.544,
353014297264,353012297264,353.014297264,353.012297264,1768044168.2915666,-0.023,0.09,0.996,0.0,0.0,0.0,-39.702,-38.714,-47.32,5.202,1.232,-160.55,
353024251140,353022251140,353.02425114,353.02225114,1768044168.3015676,-0.023,0.09,0.996,0.0,0.0,-0.61,-39.702,-38.727,-47.346,5.202,1.232,-160.558,
353034488514,353032488514,353.034488514,353.032488514,1768044168.3118453,-0.023,0.09,0.996,0.0,0.0,-0.61,-39.715,-38.753,-47.346,5.202,1.233,-160.565,
353044560223,353042560223,353.044560223,353.042560223,1768044168.321866,-0.023,0.09,0.996,0.0,0.0,-0.61,-39.728,-38.753,-47.333,5.202,1.234,-160.571,
353054733722,353052733722,353.054733722,353.052733722,1768044168.332091,-0.023,0.09,0.996,0.0,0.0,-0.61,-39.702,-38.753,-47.359,5.202,1.235,-160.578,
353064857055,353062857055,353.064857055,353.062857055,1768044168.3421319,-0.023,0.09,0.996,0.0,0.0,-0.61,-39.702,-38.753,-47.333,5.202,1.236,-160.585,
353074826682,353072826682,353.074826682,353.072826682,1768044168.3521843,-0.023,0.09,0.996,0.0,0.0,-0.61,-39.689,-38.753,-47.463,5.202,1.237,-160.591,
353084884974,353082884974,353.084884974,353.082884974,1768044168.3622313,-0.023,0.09,0.996,0.0,0.0,-0.61,-39.845,-39.065,-47.45,5.202,1.238,-160.598,
353095121180,353093121180,353.09512118,353.09312118,1768044168.3724785,-0.023,0.091,0.996,0.0,0.0,-0.61,-39.741,-38.87,-47.359,5.202,1.238,-160.605,
353105133098,353103133098,353.105133098,353.103133098,1768044168.3824885,-0.023,0.091,0.996,0.0,0.0,-0.61,-39.689,-38.779,-47.294,5.202,1.239,-160.611,
353115184391,353113184391,353.115184391,353.113184391,1768044168.3925316,-0.023,0.091,0.996,0.0,0.0,0.0,-39.689,-38.766,-47.307,5.202,1.24,-160.618,
353125395806,353123395806,353.125395806,353.123395806,1768044168.402747,-0.023,0.091,0.996,0.0,0.0,-0.61,-39.715,-38.779,-47.307,5.202,1.241,-160.625,
353135439223,353133439223,353.135439223,353.133439223,1768044168.4127903,-0.023,0.091,0.996,0.0,0.0,-0.61,-39.702,-38.753,-47.32,5.202,1.241,-160.632,
353145495182,353143495182,353.145495182,353.143495182,1768044168.4228523,-0.023,0.091,0.996,0.0,0.0,-0.61,-39.702,-38.766,-47.333,5.203,1.242,-160.638,
353155603057,353153603057,353.155603057,353.153603057,1768044168.4328883,-0.023,0.091,0.996,0.0,0.0,-0.61,-39.676,-38.779,-47.333,5.203,1.243,-160.645,
353165746224,353163746224,353.165746224,353.163746224,1768044168.4431043,-0.023,0.091,0.996,0.0,0.0,-0.61,-39.689,-38.779,-47.333,5.203,1.244,-160.651,
353175783808,353173783808,353.175783808,353.173783808,1768044168.4531395,-0.023,0.091,0.996,0.0,0.0,-0.61,-39.91,-39.143,-47.45,5.203,1.244,-160.658,
353185840933,353183840933,353.185840933,353.183840933,1768044168.4631872,-0.023,0.091,0.996,0.0,0.0,-0.61,-39.754,-38.909,-47.333,5.203,1.245,-160.665,
353196050890,353194050890,353.19605089,353.19405089,1768044168.4734032,-0.023,0.091,0.996,0.0,0.0,-0.61,-39.689,-38.818,-47.268,5.204,1.246,-160.671,
353206155265,353204155265,353.206155265,353.204155265,1768044168.483476,-0.023,0.091,0.996,0.0,0.0,-0.61,-39.689,-38.792,-47.268,5.204,1.246,-160.678,
353216163100,353214163100,353.2161631,353.2141631,1768044168.4934978,-0.023,0.091,0.996,0.0,0.0,0.0,-39.702,-38.792,-47.281,5.204,1.247,-160.685,
353226376557,353224376557,353.226376557,353.224376557,1768044168.503735,-0.023,0.091,0.996,0.0,0.0,-0.61,-39.702,-38.792,-47.294,5.204,1.248,-160.692,
353236407433,353234407433,353.236407433,353.234407433,1768044168.51376,-0.023,0.091,0.996,0.0,0.0,-0.61,-39.689,-38.792,-47.307,5.204,1.248,-160.698,
353246454059,353244454059,353.246454059,353.244454059,1768044168.5237617,-0.023,0.091,0.996,0.0,0.0,-0.61,-39.689,-38.818,-47.32,5.205,1.249,-160.705,
353256453727,353254453727,353.256453727,353.254453727,1768044168.533809,-0.023,0.091,0.996,0.0,0.0,-0.61,-39.689,-38.818,-47.307,5.205,1.25,-160.711,
353266743016,353264743016,353.266743016,353.264743016,1768044168.5440807,-0.023,0.091,0.996,0.0,0.0,-0.61,-39.793,-38.974,-47.541,5.205,1.25,-160.718,
353276776809,353274776809,353.276776809,353.274776809,1768044168.5541282,-0.023,0.091,0.996,0.0,0.0,-0.61,-39.741,-38.896,-47.385,5.206,1.251,-160.724,
353287008057,353285008057,353.287008057,353.285008057,1768044168.564341,-0.023,0.091,0.996,0.0,0.0,-0.61,-39.689,-38.818,-47.268,5.206,1.251,-160.731,
353297080349,353295080349,353.297080349,353.295080349,1768044168.5743787,-0.023,0.091,0.996,0.0,0.0,-0.61,-39.676,-38.805,-47.255,5.206,1.252,-160.737,
353307245390,353305245390,353.30724539,353.30524539,1768044168.584587,-0.023,0.091,0.996,0.0,0.0,-0.61,-39.689,-38.818,-47.255,5.206,1.252,-160.744,
353317295516,353315295516,353.317295516,353.315295516,1768044168.594641,-0.023,0.091,0.996,0.0,0.0,0.0,-39.689,-38.818,-47.268,5.207,1.253,-160.75,
353327336308,353325336308,353.327336308,353.325336308,1768044168.6046793,-0.023,0.091,0.996,0.0,0.0,-0.61,-39.663,-38.818,-47.268,5.207,1.253,-160.757,
353337387309,353335387309,353.337387309,353.335387309,1768044168.614734,-0.023,0.091,0.996,0.0,0.0,-0.61,-39.663,-38.831,-47.294,5.207,1.254,-160.764,
353347664057,353345664057,353.347664057,353.345664057,1768044168.6249442,-0.022,0.091,0.996,0.0,0.0,-0.61,-39.663,-38.831,-47.294,5.208,1.254,-160.77,
353357688808,353355688808,353.357688808,353.355688808,1768044168.6349928,-0.022,0.091,0.996,0.0,0.0,-0.61,-39.663,-38.87,-47.502,5.208,1.255,-160.777,
353367686434,353365686434,353.367686434,353.365686434,1768044168.6450367,-0.022,0.091,0.996,0.0,0.0,-0.61,-39.741,-38.948,-47.359,5.208,1.255,-160.784,
353377922933,353375922933,353.377922933,353.375922933,1768044168.6552405,-0.022,0.091,0.996,0.0,0.0,-0.61,-39.689,-38.857,-47.268,5.208,1.256,-160.79,
353387975392,353385975392,353.387975392,353.385975392,1768044168.6652884,-0.022,0.091,0.996,0.0,0.0,-0.61,-39.663,-38.818,-47.229,5.209,1.256,-160.797,
353398015892,353396015892,353.398015892,353.396015892,1768044168.6753392,-0.022,0.091,0.996,0.0,0.0,-0.61,-39.689,-38.831,-47.242,5.209,1.256,-160.803,
353408198141,353406198141,353.408198141,353.406198141,1768044168.6855514,-0.022,0.091,0.996,0.0,0.0,-0.61,-39.689,-38.844,-47.242,5.209,1.257,-160.81,
353418282100,353416282100,353.4182821,353.4162821,1768044168.695604,-0.022,0.091,0.996,0.0,0.0,-0.61,-39.689,-38.831,-47.255,5.21,1.257,-160.816,
353428315601,353426315601,353.428315601,353.426315601,1768044168.705646,-0.022,0.091,0.996,0.0,0.0,-0.61,-39.676,-38.844,-47.281,5.21,1.258,-160.824,
353438512725,353436512725,353.438512725,353.436512725,1768044168.7158616,-0.022,0.091,0.996,0.0,0.0,-0.61,-39.676,-38.831,-47.255,5.21,1.258,-160.83,
353448560226,353446560226,353.448560226,353.446560226,1768044168.725907,-0.022,0.091,0.996,0.0,0.0,-0.61,-39.702,-38.922,-47.333,5.21,1.258,-160.837,
353458642143,353456642143,353.458642143,353.456642143,1768044168.7359354,-0.022,0.091,0.996,0.0,0.0,-0.61,-39.845,-39.13,-47.307,5.211,1.259,-160.844,
353468848891,353466848891,353.468848891,353.466848891,1768044168.7461414,-0.022,0.091,0.996,0.0,0.0,-0.671,-39.741,-38.909,-47.177,5.211,1.259,-160.851,
353479147806,353477147806,353.479147806,353.477147806,1768044168.7562985,-0.022,0.091,0.996,0.0,0.0,-0.671,-39.715,-38.831,-47.125,5.211,1.259,-160.857,
353490276793,353488276793,353.490276793,353.488276793,1768044168.7674286,-0.022,0.091,0.996,0.0,0.0,-0.671,-39.715,-38.831,-47.125,5.212,1.26,-160.865,
353500858329,353498858329,353.500858329,353.498858329,1768044168.77783,-0.022,0.091,0.996,0.0,0.0,-0.671,-39.702,-38.857,-47.255,5.212,1.26,-160.872,
353511094244,353509094244,353.511094244,353.509094244,1768044168.7882066,-0.022,0.091,0.996,0.0,0.0,-0.671,-39.676,-38.857,-47.268,5.212,1.26,-160.879,
353521377117,353519377117,353.521377117,353.519377117,1768044168.7984781,-0.022,0.091,0.996,0.0,0.0,0.0,-39.689,-38.844,-47.255,5.212,1.26,-160.885,
353531734947,353529734947,353.531734947,353.529734947,1768044168.8088522,-0.022,0.091,0.996,0.0,0.0,-0.671,-39.715,-38.857,-47.203,5.212,1.261,-160.893,
353542366940,353540366940,353.54236694,353.54036694,1768044168.819397,-0.022,0.091,0.996,0.0,0.0,-0.671,-39.806,-39.026,-47.385,5.213,1.261,-160.9,
353552635813,353550635813,353.552635813,353.550635813,1768044168.8299265,-0.022,0.091,0.996,0.0,0.0,-0.671,-39.793,-39.026,-47.489,5.213,1.261,-160.907,
353562601148,353560601148,353.562601148,353.560601148,1768044168.8399394,-0.022,0.091,0.996,0.0,0.0,-0.671,-39.702,-38.883,-47.398,5.213,1.261,-160.914,
353572697648,353570697648,353.572697648,353.570697648,1768044168.8500316,-0.022,0.091,0.996,0.0,0.0,-0.671,-39.663,-38.831,-47.281,5.213,1.261,-160.921,
353582889814,353580889814,353.582889814,353.580889814,1768044168.860246,-0.022,0.091,0.996,0.0,0.0,-0.671,-39.676,-38.792,-47.242,5.214,1.262,-160.927,
353592942856,353590942856,353.592942856,353.590942856,1768044168.8702824,-0.022,0.091,0.996,0.0,0.0,-0.671,-39.676,-38.818,-47.242,5.214,1.262,-160.934,
353602992107,353600992107,353.602992107,353.600992107,1768044168.880335,-0.022,0.091,0.996,0.0,0.0,-0.671,-39.689,-38.831,-47.229,5.214,1.262,-160.941,
353613210522,353611210522,353.613210522,353.611210522,1768044168.8905637,-0.022,0.091,0.996,0.0,0.0,-0.671,-39.689,-38.87,-47.242,5.214,1.262,-160.948,
353623259190,353621259190,353.62325919,353.62125919,1768044168.9006057,-0.022,0.091,0.996,0.0,0.0,0.0,-39.689,-38.857,-47.216,5.214,1.262,-160.955,
353633304940,353631304940,353.63330494,353.63130494,1768044168.910653,-0.022,0.091,0.996,0.0,0.0,-0.671,-39.715,-38.857,-47.411,5.214,1.262,-160.962,
353643433524,353641433524,353.643433524,353.641433524,1768044168.920753,-0.022,0.091,0.996,0.0,0.0,-0.671,-39.793,-38.935,-47.372,5.214,1.262,-160.969,
353653632106,353651632106,353.653632106,353.651632106,1768044168.930978,-0.022,0.091,0.996,0.0,0.0,-0.671,-39.741,-38.844,-47.268,5.214,1.262,-160.976,
353663679898,353661679898,353.663679898,353.661679898,1768044168.9409683,-0.022,0.091,0.996,0.0,0.0,-0.671,-39.702,-38.805,-47.229,5.214,1.262,-160.983,
353673950229,353671950229,353.673950229,353.671950229,1768044168.9512274,-0.022,0.091,0.996,0.0,0.0,-0.671,-39.689,-38.818,-47.242,5.215,1.262,-160.99,
353683923939,353681923939,353.683923939,353.681923939,1768044168.961272,-0.022,0.091,0.996,0.0,0.0,-0.671,-39.689,-38.831,-47.242,5.215,1.262,-160.997,
353693989232,353691989232,353.693989232,353.691989232,1768044168.9713347,-0.022,0.091,0.996,0.0,0.0,-0.671,-39.689,-38.844,-47.229,5.215,1.262,-161.003,
353704017191,353702017191,353.704017191,353.702017191,1768044168.9813735,-0.022,0.091,0.996,0.0,0.0,-0.671,-39.676,-38.857,-47.242,5.215,1.262,-161.01,
353714319313,353712319313,353.714319313,353.712319313,1768044168.9915974,-0.022,0.091,0.996,0.0,0.0,-0.671,-39.676,-38.87,-47.229,5.215,1.262,-161.017,
353724289232,353722289232,353.724289232,353.722289232,1768044169.0016444,-0.021,0.09,0.995,0.0,0.0,0.0,-39.676,-38.87,-47.333,5.215,1.262,-161.025,
353734337024,353732337024,353.734337024,353.732337024,1768044169.0116892,-0.021,0.09,0.995,0.0,0.0,-0.671,-39.871,-39.208,-47.359,5.215,1.262,-161.032,
353744389775,353742389775,353.744389775,353.742389775,1768044169.0216973,-0.021,0.09,0.995,0.0,0.0,-0.671,-39.741,-38.948,-47.229,5.215,1.262,-161.039,
353754673231,353752673231,353.754673231,353.752673231,1768044169.031976,-0.021,0.09,0.995,0.0,0.0,-0.671,-39.702,-38.87,-47.177,5.215,1.262,-161.046,
353764657149,353762657149,353.764657149,353.762657149,1768044169.0420103,-0.021,0.09,0.995,0.0,0.0,-0.671,-39.689,-38.844,-47.203,5.215,1.261,-161.053,
353774777566,353772777566,353.774777566,353.772777566,1768044169.052054,-0.021,0.09,0.995,0.0,0.0,-0.671,-39.702,-38.844,-47.216,5.215,1.261,-161.06,
353784788025,353782788025,353.784788025,353.782788025,1768044169.0621004,-0.021,0.09,0.995,0.0,0.0,-0.671,-39.689,-38.844,-47.229,5.215,1.261,-161.067,
353794964733,353792964733,353.794964733,353.792964733,1768044169.072317,-0.021,0.09,0.995,0.0,0.0,-0.671,-39.689,-38.857,-47.229,5.215,1.261,-161.074,
353805088649,353803088649,353.805088649,353.803088649,1768044169.082373,-0.021,0.09,0.995,0.0,0.0,-0.671,-39.676,-38.857,-47.229,5.215,1.261,-161.081,
353815186024,353813186024,353.815186024,353.813186024,1768044169.0924687,-0.021,0.09,0.995,0.0,0.0,-0.671,-39.676,-38.87,-47.229,5.215,1.26,-161.088,
353825277566,353823277566,353.825277566,353.823277566,1768044169.1026359,-0.021,0.09,0.995,0.0,0.0,0.0,-39.949,-39.26,-47.359,5.215,1.26,-161.095,
353835336150,353833336150,353.83533615,353.83333615,1768044169.112695,-0.021,0.09,0.995,0.0,0.0,-0.671,-39.793,-38.974,-47.281,5.214,1.26,-161.103,
353845385401,353843385401,353.845385401,353.843385401,1768044169.1227398,-0.021,0.09,0.995,0.0,0.0,-0.671,-39.689,-38.857,-47.203,5.214,1.26,-161.11,
353855597399,353853597399,353.855597399,353.853597399,1768044169.1329572,-0.021,0.09,0.995,0.0,0.0,-0.671,-39.676,-38.857,-47.19,5.214,1.26,-161.117,
353865647817,353863647817,353.865647817,353.863647817,1768044169.1429944,-0.021,0.09,0.995,0.0,0.0,-0.671,-39.676,-38.883,-47.216,5.214,1.259,-161.124,
353875869149,353873869149,353.875869149,353.873869149,1768044169.1532242,-0.021,0.09,0.995,0.0,0.0,-0.671,-39.676,-38.883,-47.229,5.214,1.259,-161.131,
353885915483,353883915483,353.885915483,353.883915483,1768044169.1632674,-0.021,0.09,0.995,0.0,0.0,-0.671,-39.663,-38.896,-47.229,5.214,1.259,-161.138,
353895958900,353893958900,353.8959589,353.8939589,1768044169.1733131,-0.021,0.09,0.995,0.0,0.0,-0.671,-39.65,-38.883,-47.229,5.214,1.258,-161.145,
353906014567,353904014567,353.906014567,353.904014567,1768044169.1833599,-0.021,0.09,0.995,0.0,0.0,-0.671,-39.663,-38.883,-47.242,5.213,1.258,-161.152,
353916274107,353914274107,353.916274107,353.914274107,1768044169.193597,-0.021,0.09,0.995,0.0,0.0,-0.671,-39.78,-39.013,-47.476,5.213,1.258,-161.159,
353926273192,353924273192,353.926273192,353.924273192,1768044169.2036283,-0.021,0.09,0.995,0.0,0.0,0.0,-39.741,-38.948,-47.307,5.213,1.257,-161.166,
353936321276,353934321276,353.936321276,353.934321276,1768044169.2136743,-0.021,0.09,0.995,0.0,0.0,-0.671,-39.676,-38.87,-47.229,5.213,1.257,-161.173,
353946372277,353944372277,353.946372277,353.944372277,1768044169.2237258,-0.021,0.09,0.995,0.0,0.0,-0.671,-39.637,-38.844,-47.216,5.213,1.257,-161.18,
353956613442,353954613442,353.956613442,353.954613442,1768044169.2339585,-0.021,0.09,0.995,0.0,0.0,-0.671,-39.624,-38.844,-47.216,5.213,1.256,-161.187,
353966625943,353964625943,353.966625943,353.964625943,1768044169.2439828,-0.021,0.09,0.995,0.0,0.0,-0.671,-39.611,-38.883,-47.151,5.212,1.256,-161.194,
353976723901,353974723901,353.976723901,353.974723901,1768044169.2540395,-0.021,0.09,0.995,0.0,0.0,-0.671,-39.637,-38.896,-47.203,5.212,1.256,-161.202,
353986713069,353984713069,353.986713069,353.984713069,1768044169.2640655,-0.021,0.09,0.995,0.0,0.0,-0.671,-39.65,-38.896,-47.216,5.212,1.255,-161.209,
353996928276,353994928276,353.996928276,353.994928276,1768044169.274264,-0.021,0.09,0.995,0.0,0.0,-0.671,-39.65,-38.896,-47.242,5.212,1.255,-161.216,
354006974027,354004974027,354.006974027,354.004974027,1768044169.2843168,-0.021,0.09,0.995,0.0,0.0,-0.671,-39.611,-38.883,-47.437,5.211,1.255,-161.223,
354017080152,354015080152,354.017080152,354.015080152,1768044169.294434,-0.021,0.09,0.995,0.0,0.0,-0.671,-39.715,-39.039,-47.346,5.211,1.255,-161.23,
354027263859,354025263859,354.027263859,354.025263859,1768044169.3045797,-0.021,0.09,0.995,0.0,0.0,0.0,-39.637,-38.909,-47.229,5.21,1.254,-161.237,
354037273736,354035273736,354.037273736,354.035273736,1768044169.3146253,-0.021,0.09,0.995,0.0,0.0,-0.671,-39.637,-38.896,-47.203,5.21,1.254,-161.245,
354047329694,354045329694,354.047329694,354.045329694,1768044169.3246863,-0.021,0.09,0.995,0.0,0.0,-0.671,-39.624,-38.909,-47.216,5.21,1.254,-161.252,
354057526235,354055526235,354.057526235,354.055526235,1768044169.3348832,-0.021,0.09,0.995,0.0,0.0,-0.671,-39.624,-38.909,-47.216,5.21,1.253,-161.259,
354067578402,354065578402,354.067578402,354.065578402,1768044169.3449311,-0.021,0.09,0.995,0.0,0.0,-0.671,-39.611,-38.909,-47.229,5.209,1.253,-161.267,
354077618612,354075618612,354.077618612,354.075618612,1768044169.3549764,-0.021,0.09,0.995,0.0,0.0,-0.671,-39.624,-38.909,-47.229,5.209,1.253,-161.274,
354087846360,354085846360,354.08784636,354.08584636,1768044169.365201,-0.021,0.09,0.995,0.0,0.0,-0.671,-39.611,-38.909,-47.229,5.209,1.252,-161.281,
354097905819,354095905819,354.097905819,354.095905819,1768044169.3752499,-0.021,0.09,0.995,0.0,0.0,-0.671,-39.624,-38.922,-47.281,5.208,1.252,-161.288,
354107950986,354105950986,354.107950986,354.105950986,1768044169.385302,-0.021,0.089,0.995,0.0,0.0,-0.671,-39.806,-39.273,-47.32,5.208,1.252,-161.295,
354118007529,354116007529,354.118007529,354.116007529,1768044169.3953514,-0.021,0.089,0.995,0.0,0.0,-0.671,-39.689,-39.026,-47.242,5.207,1.252,-161.303,
354128209027,354126209027,354.128209027,354.126209027,1768044169.4055624,-0.021,0.089,0.995,0.0,0.0,0.0,-39.624,-38.922,-47.164,5.207,1.252,-161.31,
354138334402,354136334402,354.138334402,354.136334402,1768044169.4156146,-0.021,0.089,0.995,0.0,0.0,-0.671,-39.611,-38.935,-47.19,5.206,1.251,-161.318,
354148322404,354146322404,354.148322404,354.146322404,1768044169.4256675,-0.021,0.089,0.995,0.0,0.0,-0.671,-39.585,-38.935,-47.203,5.206,1.251,-161.325,
354158518944,354156518944,354.158518944,354.156518944,1768044169.4358797,-0.021,0.089,0.995,0.0,0.0,-0.671,-39.598,-38.935,-47.229,5.206,1.251,-161.332,
354168643736,354166643736,354.168643736,354.166643736,1768044169.445928,-0.021,0.089,0.995,0.0,0.0,-0.671,-39.598,-38.961,-47.229,5.205,1.251,-161.339,
354178608696,354176608696,354.178608696,354.176608696,1768044169.4559662,-0.021,0.089,0.995,0.0,0.0,-0.671,-39.611,-38.961,-47.229,5.205,1.251,-161.347,
354188841111,354186841111,354.188841111,354.186841111,1768044169.4661794,-0.021,0.089,0.995,0.0,0.0,-0.671,-39.598,-38.961,-47.229,5.204,1.251,-161.354,
354198871987,354196871987,354.198871987,354.196871987,1768044169.4762323,-0.021,0.089,0.995,0.0,0.0,-0.671,-39.754,-39.221,-47.385,5.204,1.25,-161.361,
354208941362,354206941362,354.208941362,354.206941362,1768044169.4862864,-0.021,0.089,0.995,0.0,0.0,-0.671,-39.676,-39.026,-47.255,5.203,1.25,-161.369,
354218962905,354216962905,354.218962905,354.216962905,1768044169.4963143,-0.021,0.089,0.995,0.0,0.0,-0.671,-39.611,-38.948,-47.216,5.203,1.25,-161.376,
354229235570,354227235570,354.22923557,354.22723557,1768044169.5065536,-0.021,0.089,0.995,0.0,0.0,-0.671,-39.585,-38.948,-47.216,5.202,1.25,-161.383,
354239218613,354237218613,354.239218613,354.237218613,1768044169.5165765,-0.022,0.089,0.995,0.0,0.0,0.0,-39.572,-38.948,-47.229,5.202,1.25,-161.39,
354249283030,354247283030,354.24928303,354.24728303,1768044169.5266385,-0.022,0.089,0.995,0.0,0.0,-0.671,-39.585,-38.961,-47.242,5.201,1.25,-161.398,
354259323822,354257323822,354.259323822,354.257323822,1768044169.536681,-0.022,0.089,0.995,0.0,0.0,-0.671,-39.624,-38.948,-47.242,5.201,1.25,-161.405,
354269532029,354267532029,354.269532029,354.267532029,1768044169.546888,-0.022,0.089,0.995,0.0,0.0,-0.671,-39.598,-38.948,-47.242,5.2,1.25,-161.412,
354279583322,354277583322,354.279583322,354.277583322,1768044169.5569396,-0.022,0.089,0.995,0.0,0.0,-0.671,-39.611,-38.961,-47.255,5.2,1.25,-161.42,
354289642781,354287642781,354.289642781,354.287642781,1768044169.5669909,-0.022,0.089,0.995,0.0,0.0,-0.671,-39.637,-39.013,-47.502,5.199,1.25,-161.427,
354299884821,354297884821,354.299884821,354.297884821,1768044169.5772405,-0.022,0.089,0.995,0.0,0.0,-0.671,-39.624,-38.987,-47.32,5.199,1.25,-161.434,
354309927946,354307927946,354.309927946,354.307927946,1768044169.5872872,-0.022,0.089,0.995,0.0,0.0,-0.671,-39.598,-38.961,-47.255,5.198,1.25,-161.441,
354319944239,354317944239,354.319944239,354.317944239,1768044169.5972989,-0.022,0.089,0.995,0.0,0.0,-0.671,-39.585,-38.948,-47.229,5.198,1.25,-161.449,
354330161780,354328161780,354.33016178,354.32816178,1768044169.607514,-0.022,0.089,0.995,0.0,0.0,-0.671,-39.572,-38.987,-47.229,5.197,1.25,-161.456,
354340217155,354338217155,354.340217155,354.338217155,1768044169.6175652,-0.022,0.089,0.995,0.0,0.0,0.0,-39.585,-38.987,-47.255,5.197,1.25,-161.463,
354350251531,354348251531,354.350251531,354.348251531,1768044169.6276078,-0.022,0.089,0.995,0.0,0.0,-0.671,-39.611,-38.987,-47.268,5.196,1.25,-161.471,
354360385364,354358385364,354.360385364,354.358385364,1768044169.6376667,-0.022,0.089,0.995,0.0,0.0,-0.671,-39.598,-38.961,-47.242,5.195,1.25,-161.478,
354370518322,354368518322,354.370518322,354.368518322,1768044169.6478655,-0.022,0.089,0.995,0.0,0.0,-0.671,-39.572,-38.974,-47.268,5.195,1.25,-161.485,
354380573114,354378573114,354.380573114,354.378573114,1768044169.6579285,-0.022,0.089,0.995,0.0,0.0,-0.671,-39.637,-39.117,-47.411,5.195,1.251,-161.492,
354390642198,354388642198,354.390642198,354.388642198,1768044169.667961,-0.022,0.089,0.995,0.0,0.0,-0.671,-39.663,-39.195,-47.333,5.194,1.251,-161.499,
354400899988,354398899988,354.400899988,354.398899988,1768044169.6781816,-0.022,0.089,0.995,0.0,0.0,-0.671,-39.611,-39.039,-47.268,5.194,1.251,-161.506,
354410869615,354408869615,354.410869615,354.408869615,1768044169.6882236,-0.022,0.089,0.995,0.0,0.0,-0.671,-39.572,-39.0,-47.216,5.193,1.251,-161.514,
354421129738,354419129738,354.421129738,354.419129738,1768044169.698445,-0.022,0.089,0.995,0.0,0.0,-0.671,-39.572,-39.0,-47.229,5.193,1.252,-161.521,
354431205530,354429205530,354.43120553,354.42920553,1768044169.70849,-0.022,0.089,0.995,0.0,0.0,-0.671,-39.572,-39.013,-47.255,5.192,1.252,-161.528,
354441264697,354439264697,354.441264697,354.439264697,1768044169.718549,-0.022,0.089,0.995,0.0,0.0,0.0,-39.585,-38.987,-47.255,5.192,1.252,-161.535,
354451223824,354449223824,354.451223824,354.449223824,1768044169.7285745,-0.022,0.089,0.995,0.0,0.0,-0.671,-39.572,-39.0,-47.255,5.191,1.252,-161.543,
354461506988,354459506988,354.461506988,354.459506988,1768044169.7387974,-0.022,0.089,0.995,0.0,0.0,-0.671,-39.572,-38.987,-47.255,5.191,1.252,-161.55,
354471508698,354469508698,354.471508698,354.469508698,1768044169.748843,-0.022,0.089,0.995,0.0,0.0,-0.671,-39.65,-39.156,-47.346,5.19,1.253,-161.558,
354481586823,354479586823,354.481586823,354.479586823,1768044169.75889,-0.022,0.089,0.995,0.0,0.0,-0.671,-39.715,-39.247,-47.333,5.19,1.253,-161.565,
354491738156,354489738156,354.491738156,354.489738156,1768044169.7690985,-0.022,0.089,0.995,0.0,0.0,-0.671,-39.598,-39.078,-47.255,5.189,1.253,-161.572,
354501865572,354499865572,354.501865572,354.499865572,1768044169.7791631,-0.022,0.089,0.995,0.0,0.0,-0.671,-39.546,-39.013,-47.242,5.189,1.253,-161.579,
354512068821,354510068821,354.512068821,354.510068821,1768044169.7894228,-0.022,0.089,0.995,0.0,0.0,-0.671,-39.546,-39.013,-47.255,5.189,1.254,-161.586,
354522070531,354520070531,354.522070531,354.520070531,1768044169.7994242,-0.022,0.089,0.995,0.0,0.0,-0.671,-39.559,-39.026,-47.268,5.188,1.254,-161.593,
354532158573,354530158573,354.532158573,354.530158573,1768044169.8094556,-0.022,0.089,0.995,0.0,0.0,0.0,-39.559,-39.026,-47.268,5.188,1.254,-161.601,
354542324780,354540324780,354.54232478,354.54032478,1768044169.8196812,-0.022,0.089,0.995,0.0,0.0,-0.671,-39.559,-39.013,-47.268,5.188,1.254,-161.608,
354552376364,354550376364,354.552376364,354.550376364,1768044169.8297272,-0.022,0.089,0.995,0.0,0.0,-0.671,-39.559,-39.013,-47.294,5.187,1.255,-161.616,
354562428532,354560428532,354.562428532,354.560428532,1768044169.8397844,-0.022,0.089,0.995,0.0,0.0,-0.671,-39.611,-39.078,-47.398,5.187,1.255,-161.623,
354572634114,354570634114,354.572634114,354.570634114,1768044169.8499281,-0.022,0.089,0.995,0.0,0.0,-0.671,-39.65,-39.143,-47.45,5.187,1.255,-161.63,
354582832404,354580832404,354.582832404,354.580832404,1768044169.8601608,-0.022,0.089,0.995,0.0,0.0,-0.671,-39.572,-39.065,-47.294,5.187,1.255,-161.637,
354592839947,354590839947,354.592839947,354.590839947,1768044169.870195,-0.022,0.089,0.995,0.0,0.0,-0.671,-39.559,-39.026,-47.255,5.186,1.256,-161.644,
354602914573,354600914573,354.602914573,354.600914573,1768044169.8802426,-0.022,0.089,0.995,0.0,0.0,-0.671,-39.52,-38.987,-47.229,5.186,1.256,-161.651,
354612932032,354610932032,354.612932032,354.610932032,1768044169.890287,-0.022,0.09,0.995,0.0,0.0,-0.671,-39.533,-39.013,-47.268,5.186,1.256,-161.658,
354623171155,354621171155,354.623171155,354.621171155,1768044169.9005299,-0.022,0.09,0.995,0.0,0.0,-0.671,-39.559,-39.013,-47.268,5.186,1.257,-161.665,
354633197073,354631197073,354.633197073,354.631197073,1768044169.9105523,-0.022,0.09,0.995,0.0,0.0,-0.671,-39.533,-39.039,-47.268,5.185,1.257,-161.672,
354643240490,354641240490,354.64324049,354.64124049,1768044169.9205985,-0.022,0.09,0.995,0.0,0.0,0.0,-39.546,-39.039,-47.281,5.185,1.257,-161.679,
354653461239,354651461239,354.653461239,354.651461239,1768044169.930813,-0.022,0.09,0.995,0.0,0.0,-0.671,-39.546,-39.039,-47.372,5.185,1.258,-161.687,
354663581364,354661581364,354.663581364,354.661581364,1768044169.9408653,-0.022,0.09,0.995,0.0,0.0,-0.671,-39.611,-39.208,-47.437,5.185,1.258,-161.694,
354673570824,354671570824,354.673570824,354.671570824,1768044169.9509249,-0.022,0.09,0.995,0.0,0.0,-0.671,-39.572,-39.13,-47.307,5.185,1.258,-161.7,
354683520617,354681520617,354.683520617,354.681520617,1768044169.9608777,-0.022,0.09,0.995,0.0,0.0,-0.671,-39.546,-39.052,-47.255,5.185,1.258,-161.707,
354693740199,354691740199,354.693740199,354.691740199,1768044169.9710991,-0.022,0.09,0.995,0.0,0.0,-0.671,-39.546,-39.039,-47.216,5.185,1.259,-161.715,
354703789450,354701789450,354.70378945,354.70178945,1768044169.9811447,-0.022,0.09,0.995,0.0,0.0,-0.671,-39.559,-39.052,-47.229,5.185,1.259,-161.722,
354713855325,354711855325,354.713855325,354.711855325,1768044169.9912107,-0.022,0.09,0.995,0.0,0.0,-0.671,-39.546,-39.065,-47.255,5.185,1.259,-161.729,
354724134407,354722134407,354.724134407,354.722134407,1768044170.0014613,-0.022,0.09,0.995,0.0,0.0,-0.671,-39.546,-39.065,-47.255,5.184,1.26,-161.736,
354734111033,354732111033,354.734111033,354.732111033,1768044170.011457,-0.022,0.09,0.995,0.0,0.0,-0.671,-39.533,-39.052,-47.268,5.184,1.26,-161.743,
354744159992,354742159992,354.744159992,354.742159992,1768044170.0215003,-0.022,0.09,0.996,0.0,0.0,0.0,-39.533,-39.052,-47.281,5.184,1.26,-161.75,
354754361783,354752361783,354.754361783,354.752361783,1768044170.0317209,-0.022,0.09,0.996,0.0,0.0,-0.671,-39.715,-39.416,-47.385,5.184,1.26,-161.757,
354764644947,354762644947,354.764644947,354.762644947,1768044170.0420015,-0.022,0.09,0.996,0.0,0.0,-0.671,-39.637,-39.247,-47.268,5.184,1.261,-161.764,
354774490909,354772490909,354.774490909,354.772490909,1768044170.0518339,-0.022,0.09,0.996,0.0,0.0,-0.671,-39.559,-39.117,-47.229,5.184,1.261,-161.771,
354784510993,354782510993,354.784510993,354.782510993,1768044170.0618677,-0.022,0.09,0.996,0.0,0.0,-0.671,-39.533,-39.065,-47.216,5.185,1.262,-161.778,
354794793574,354792793574,354.794793574,354.792793574,1768044170.0720866,-0.022,0.09,0.996,0.0,0.0,-0.671,-39.546,-39.078,-47.242,5.185,1.262,-161.785,
354804792659,354802792659,354.804792659,354.802792659,1768044170.0821316,-0.022,0.09,0.996,0.0,0.0,-0.671,-39.546,-39.065,-47.268,5.185,1.262,-161.792,
354814891784,354812891784,354.814891784,354.812891784,1768044170.0921776,-0.022,0.09,0.996,0.0,0.0,-0.671,-39.533,-39.078,-47.268,5.185,1.263,-161.799,
354825160657,354823160657,354.825160657,354.823160657,1768044170.102456,-0.022,0.09,0.996,0.0,0.0,-0.671,-39.52,-39.078,-47.281,5.185,1.263,-161.806,
354835101117,354833101117,354.835101117,354.833101117,1768044170.112457,-0.022,0.09,0.996,0.0,0.0,-0.671,-39.533,-39.091,-47.281,5.185,1.263,-161.813,
354845205201,354843205201,354.845205201,354.843205201,1768044170.122491,-0.022,0.09,0.996,0.0,0.0,-0.671,-39.65,-39.325,-47.411,5.185,1.263,-161.819,
354855353909,354853353909,354.855353909,354.853353909,1768044170.1327171,-0.022,0.09,0.996,0.0,0.0,0.0,-39.624,-39.273,-47.359,5.185,1.264,-161.826,
354865411909,354863411909,354.865411909,354.863411909,1768044170.1427593,-0.022,0.09,0.996,0.0,0.0,-0.671,-39.546,-39.13,-47.242,5.185,1.264,-161.834,
354875465535,354873465535,354.875465535,354.873465535,1768044170.1528182,-0.023,0.09,0.996,0.0,0.0,-0.671,-39.533,-39.078,-47.229,5.185,1.265,-161.84,
354885487077,354883487077,354.885487077,354.883487077,1768044170.162842,-0.023,0.09,0.996,0.0,0.0,-0.671,-39.52,-39.078,-47.229,5.185,1.265,-161.847,
354895527287,354893527287,354.895527287,354.893527287,1768044170.1728876,-0.023,0.09,0.996,0.0,0.0,-0.671,-39.546,-39.104,-47.242,5.186,1.266,-161.854,
354905748619,354903748619,354.905748619,354.903748619,1768044170.1831064,-0.023,0.09,0.996,0.0,0.0,-0.671,-39.533,-39.091,-47.242,5.186,1.266,-161.861,
354915872243,354913872243,354.915872243,354.913872243,1768044170.193152,-0.023,0.09,0.996,0.0,0.0,-0.671,-39.533,-39.104,-47.255,5.186,1.267,-161.868,
354925919452,354923919452,354.925919452,354.923919452,1768044170.2032096,-0.023,0.09,0.996,0.0,0.0,-0.671,-39.533,-39.104,-47.242,5.186,1.267,-161.874,
354936101993,354934101993,354.936101993,354.934101993,1768044170.2134554,-0.023,0.09,0.996,0.0,0.0,-0.671,-39.533,-39.13,-47.424,5.187,1.267,-161.881,
354946182452,354944182452,354.946182452,354.944182452,1768044170.2234657,-0.023,0.09,0.996,0.0,0.0,-0.61,-39.611,-39.208,-47.385,5.187,1.268,-161.888,
354956157328,354954157328,354.956157328,354.954157328,1768044170.2335122,-0.023,0.09,0.996,0.0,0.0,0.0,-39.533,-39.104,-47.255,5.187,1.268,-161.894,
354966384202,354964384202,354.966384202,354.964384202,1768044170.2437332,-0.023,0.09,0.996,0.0,0.0,-0.61,-39.546,-39.078,-47.203,5.187,1.269,-161.902,
354976427328,354974427328,354.976427328,354.974427328,1768044170.253781,-0.023,0.09,0.996,0.0,0.0,-0.61,-39.533,-39.065,-47.203,5.187,1.269,-161.908,
354986477745,354984477745,354.986477745,354.984477745,1768044170.2638302,-0.023,0.09,0.996,0.0,0.0,-0.61,-39.52,-39.091,-47.229,5.188,1.27,-161.915,
354996589995,354994589995,354.996589995,354.994589995,1768044170.2738762,-0.023,0.091,0.996,0.0,0.0,-0.61,-39.533,-39.091,-47.242,5.188,1.27,-161.921,
355006732869,355004732869,355.006732869,355.004732869,1768044170.284086,-0.023,0.091,0.996,0.0,0.0,-0.61,-39.533,-39.091,-47.216,5.188,1.271,-161.928,
355016793203,355014793203,355.016793203,355.014793203,1768044170.2941449,-0.023,0.091,0.996,0.0,0.0,-0.61,-39.533,-39.117,-47.216,5.189,1.272,-161.935,
355026815913,355024815913,355.026815913,355.024815913,1768044170.3041346,-0.023,0.091,0.996,0.0,0.0,-0.61,-39.546,-39.117,-47.307,5.189,1.272,-161.941,
355037067286,355035067286,355.037067286,355.035067286,1768044170.3144162,-0.023,0.091,0.996,0.0,0.0,-0.61,-39.702,-39.481,-47.32,5.189,1.273,-161.948,
355047026704,355045026704,355.047026704,355.045026704,1768044170.3243787,-0.023,0.091,0.996,0.0,0.0,-0.61,-39.585,-39.221,-47.164,5.19,1.273,-161.954,
355057110371,355055110371,355.057110371,355.055110371,1768044170.3344462,-0.023,0.091,0.996,0.0,0.0,-0.61,-39.572,-39.117,-47.138,5.19,1.274,-161.961,
355067324412,355065324412,355.067324412,355.065324412,1768044170.3446715,-0.023,0.091,0.996,0.0,0.0,-0.61,-39.533,-39.091,-47.138,5.19,1.275,-161.968,
355077343329,355075343329,355.077343329,355.075343329,1768044170.3546655,-0.023,0.091,0.996,0.0,0.0,-0.61,-39.533,-39.104,-47.164,5.191,1.275,-161.975,
355087389955,355085389955,355.087389955,355.085389955,1768044170.364746,-0.023,0.091,0.996,0.0,0.0,-0.61,-39.546,-39.117,-47.164,5.191,1.276,-161.981,
355097405373,355095405373,355.097405373,355.095405373,1768044170.3747585,-0.023,0.091,0.996,0.0,0.0,-0.61,-39.533,-39.13,-47.164,5.191,1.276,-161.988,
355107726162,355105726162,355.107726162,355.105726162,1768044170.3850453,-0.023,0.091,0.996,0.0,0.0,-0.61,-39.52,-39.13,-47.138,5.192,1.277,-161.994,
355117727872,355115727872,355.117727872,355.115727872,1768044170.3950124,-0.023,0.091,0.996,0.0,0.0,-0.61,-39.533,-39.117,-47.138,5.192,1.277,-162.001,
355127707123,355125707123,355.127707123,355.125707123,1768044170.4050496,-0.023,0.091,0.996,0.0,0.0,-0.61,-39.78,-39.52,-47.307,5.192,1.278,-162.007,
355137833665,355135833665,355.137833665,355.135833665,1768044170.41512,-0.023,0.091,0.996,0.0,0.0,-0.61,-39.637,-39.26,-47.177,5.193,1.279,-162.014,
355148126746,355146126746,355.148126746,355.146126746,1768044170.4254117,-0.023,0.091,0.996,0.0,0.0,-0.61,-39.572,-39.156,-47.099,5.193,1.279,-162.02,
355158082664,355156082664,355.158082664,355.156082664,1768044170.4354336,-0.023,0.091,0.996,0.0,0.0,-0.61,-39.559,-39.13,-47.099,5.193,1.28,-162.026,
355168104790,355166104790,355.16810479,355.16610479,1768044170.4454563,-0.023,0.091,0.996,0.0,0.0,0.0,-39.546,-39.13,-47.099,5.194,1.28,-162.033,
355178384163,355176384163,355.178384163,355.176384163,1768044170.4556718,-0.023,0.091,0.996,0.0,0.0,-0.61,-39.533,-39.13,-47.138,5.194,1.281,-162.04,
355188398997,355186398997,355.188398997,355.186398997,1768044170.4656851,-0.023,0.091,0.996,0.0,0.0,-0.61,-39.533,-39.143,-47.125,5.194,1.282,-162.046,
355198388749,355196388749,355.198388749,355.196388749,1768044170.4757445,-0.023,0.091,0.996,0.0,0.0,-0.61,-39.546,-39.117,-47.099,5.195,1.282,-162.053,
355208696413,355206696413,355.208696413,355.206696413,1768044170.4859889,-0.023,0.091,0.996,0.0,0.0,-0.61,-39.546,-39.13,-47.086,5.195,1.283,-162.06,
355218640665,355216640665,355.218640665,355.216640665,1768044170.49599,-0.023,0.091,0.996,0.0,0.0,-0.61,-39.559,-39.13,-47.346,5.196,1.283,-162.066,
355228964954,355226964954,355.228964954,355.226964954,1768044170.50624,-0.023,0.091,0.996,0.0,0.0,-0.61,-39.598,-39.208,-47.177,5.196,1.284,-162.073,
355238971039,355236971039,355.238971039,355.236971039,1768044170.516253,-0.023,0.091,0.996,0.0,0.0,-0.61,-39.546,-39.143,-47.073,5.196,1.285,-162.079,
355248972165,355246972165,355.248972165,355.246972165,1768044170.526327,-0.023,0.091,0.996,0.0,0.0,-0.61,-39.533,-39.117,-47.047,5.197,1.285,-162.086,
355259178622,355257178622,355.259178622,355.257178622,1768044170.536503,-0.023,0.091,0.996,0.0,0.0,-0.61,-39.546,-39.091,-47.034,5.197,1.285,-162.092,
355269301080,355267301080,355.26930108,355.26730108,1768044170.5465834,-0.023,0.091,0.996,0.0,0.0,0.0,-39.572,-39.13,-47.06,5.197,1.286,-162.099,
355279220832,355277220832,355.279220832,355.277220832,1768044170.556576,-0.023,0.091,0.996,0.0,0.0,-0.61,-39.572,-39.156,-47.06,5.198,1.286,-162.106,
355289339791,355287339791,355.289339791,355.287339791,1768044170.566629,-0.023,0.091,0.996,0.0,0.0,-0.61,-39.533,-39.156,-47.047,5.198,1.286,-162.112,
355299512123,355297512123,355.299512123,355.297512123,1768044170.5768685,-0.023,0.091,0.996,0.0,0.0,-0.61,-39.546,-39.143,-47.06,5.198,1.287,-162.119,
355309538041,355307538041,355.309538041,355.307538041,1768044170.5868864,-0.023,0.091,0.996,0.0,0.0,-0.61,-39.52,-39.156,-47.268,5.199,1.287,-162.125,
355319575917,355317575917,355.319575917,355.317575917,1768044170.5969274,-0.023,0.091,0.996,0.0,0.0,-0.61,-39.624,-39.312,-47.138,5.199,1.287,-162.132,
355329810373,355327810373,355.329810373,355.327810373,1768044170.6071603,-0.023,0.091,0.996,0.0,0.0,-0.61,-39.559,-39.195,-47.034,5.199,1.288,-162.138,
355340013331,355338013331,355.340013331,355.338013331,1768044170.617363,-0.023,0.091,0.996,0.0,0.0,-0.61,-39.52,-39.169,-47.008,5.2,1.288,-162.145,
355350059665,355348059665,355.350059665,355.348059665,1768044170.627415,-0.023,0.091,0.996,0.0,0.0,-0.61,-39.52,-39.156,-47.021,5.2,1.288,-162.152,
355360227914,355358227914,355.360227914,355.358227914,1768044170.6375856,-0.023,0.091,0.996,0.0,0.0,-0.61,-39.546,-39.169,-47.021,5.2,1.288,-162.158,
355370257915,355368257915,355.370257915,355.368257915,1768044170.6476138,-0.023,0.091,0.996,0.0,0.0,0.0,-39.546,-39.195,-47.047,5.201,1.289,-162.165,
355380421206,355378421206,355.380421206,355.378421206,1768044170.6577306,-0.022,0.091,0.996,0.0,0.0,-0.61,-39.533,-39.169,-47.008,5.201,1.289,-162.172,
355390418249,355388418249,355.390418249,355.388418249,1768044170.667734,-0.022,0.091,0.996,0.0,0.0,-0.61,-39.546,-39.169,-47.021,5.201,1.289,-162.179,
355400632872,355398632872,355.400632872,355.398632872,1768044170.6779888,-0.022,0.091,0.996,0.0,0.0,-0.61,-39.572,-39.169,-47.086,5.202,1.288,-162.186,
355410634874,355408634874,355.410634874,355.408634874,1768044170.6879883,-0.022,0.091,0.996,0.0,0.0,-0.671,-39.741,-39.494,-47.112,5.202,1.288,-162.192,
355420748582,355418748582,355.420748582,355.418748582,1768044170.6980317,-0.022,0.091,0.996,0.0,0.0,-0.671,-39.624,-39.273,-47.021,5.202,1.288,-162.199,
355430925581,355428925581,355.430925581,355.428925581,1768044170.7082841,-0.022,0.091,0.996,0.0,0.0,-0.671,-39.572,-39.208,-46.982,5.202,1.288,-162.206,
355440994082,355438994082,355.440994082,355.438994082,1768044170.7182798,-0.022,0.091,0.996,0.0,0.0,-0.671,-39.546,-39.169,-46.995,5.202,1.287,-162.213,
355451113623,355449113623,355.451113623,355.449113623,1768044170.728398,-0.022,0.091,0.996,0.0,0.0,-0.671,-39.546,-39.169,-47.008,5.203,1.287,-162.219,
355461183873,355459183873,355.461183873,355.459183873,1768044170.7385366,-0.022,0.091,0.996,0.0,0.0,-0.671,-39.559,-39.182,-47.008,5.203,1.287,-162.226,
355471300207,355469300207,355.471300207,355.469300207,1768044170.7486575,-0.022,0.091,0.996,0.0,0.0,-0.671,-39.533,-39.195,-47.021,5.203,1.287,-162.233,
355481279458,355479279458,355.481279458,355.479279458,1768044170.7586334,-0.022,0.091,0.996,0.0,0.0,-0.671,-39.546,-39.182,-47.021,5.203,1.287,-162.24,
355491378875,355489378875,355.491378875,355.489378875,1768044170.7687347,-0.022,0.091,0.996,0.0,0.0,-0.671,-39.572,-39.182,-47.021,5.204,1.286,-162.248,
355501545666,355499545666,355.501545666,355.499545666,1768044170.7789073,-0.021,0.09,0.996,0.0,0.0,-0.671,-39.676,-39.403,-47.19,5.204,1.286,-162.255,
355511722957,355509722957,355.511722957,355.509722957,1768044170.789001,-0.021,0.09,0.996,0.0,0.0,-0.671,-39.585,-39.247,-47.086,5.204,1.285,-162.261,
355521686458,355519686458,355.521686458,355.519686458,1768044170.7990432,-0.021,0.09,0.996,0.0,0.0,-0.671,-39.546,-39.182,-47.021,5.204,1.285,-162.268,
355531733084,355529733084,355.531733084,355.529733084,1768044170.809087,-0.021,0.09,0.996,0.0,0.0,-0.671,-39.52,-39.169,-47.047,5.204,1.284,-162.275,
355542028498,355540028498,355.542028498,355.540028498,1768044170.8193042,-0.021,0.09,0.996,0.0,0.0,-0.671,-39.52,-39.182,-47.073,5.204,1.283,-162.282,
355552023792,355550023792,355.552023792,355.550023792,1768044170.8293507,-0.021,0.09,0.996,0.0,0.0,-0.671,-39.507,-39.195,-47.086,5.204,1.282,-162.289,
355562107458,355560107458,355.562107458,355.560107458,1768044170.8394003,-0.021,0.09,0.996,0.0,0.0,-0.671,-39.533,-39.182,-47.073,5.204,1.281,-162.296,
355572157001,355570157001,355.572157001,355.570157001,1768044170.84944,-0.021,0.09,0.996,0.0,0.0,-0.671,-39.533,-39.182,-47.073,5.204,1.281,-162.303,
355582285001,355580285001,355.582285001,355.580285001,1768044170.8596113,-0.021,0.09,0.996,0.0,0.0,-0.671,-39.546,-39.182,-47.073,5.204,1.28,-162.31,
355592347376,355590347376,355.592347376,355.590347376,1768044170.8696961,-0.021,0.09,0.996,0.0,0.0,-0.671,-39.572,-39.247,-47.268,5.204,1.279,-162.317,
355602408002,355600408002,355.602408002,355.600408002,1768044170.8797612,-0.021,0.09,0.996,0.0,0.0,-0.671,-39.572,-39.208,-47.125,5.204,1.278,-162.325,
355612672791,355610672791,355.612672791,355.610672791,1768044170.8899734,-0.021,0.09,0.996,0.0,0.0,-0.671,-39.52,-39.182,-47.073,5.204,1.277,-162.332,
355622668376,355620668376,355.622668376,355.620668376,1768044170.9000208,-0.021,0.09,0.996,0.0,0.0,-0.671,-39.494,-39.156,-47.06,5.204,1.277,-162.339,
355632771293,355630771293,355.632771293,355.630771293,1768044170.9100525,-0.02,0.09,0.996,0.0,0.0,-0.671,-39.481,-39.195,-47.086,5.204,1.276,-162.347,
355642819960,355640819960,355.64281996,355.64081996,1768044170.9201016,-0.02,0.09,0.996,0.0,0.0,-0.671,-39.494,-39.195,-47.073,5.204,1.275,-162.354,
355653039250,355651039250,355.65303925,355.65103925,1768044170.9303176,-0.02,0.09,0.996,0.0,0.0,-0.671,-39.507,-39.195,-47.073,5.204,1.274,-162.361,
355663078876,355661078876,355.663078876,355.661078876,1768044170.9403613,-0.02,0.09,0.996,0.0,0.183,-0.671,-39.533,-39.208,-47.086,5.204,1.274,-162.368,
355673059294,355671059294,355.673059294,355.671059294,1768044170.9504075,-0.02,0.09,0.996,0.061,0.183,-0.671,-39.559,-39.208,-47.086,5.205,1.275,-162.375,
355683329334,355681329334,355.683329334,355.681329334,1768044170.9606302,-0.02,0.09,0.996,0.061,0.183,-0.671,-39.611,-39.351,-47.216,5.205,1.276,-162.383,
355693348544,355691348544,355.693348544,355.691348544,1768044170.9706624,-0.02,0.09,0.996,0.061,0.183,-0.732,-39.624,-39.39,-47.151,5.206,1.277,-162.391,
355703613333,355701613333,355.703613333,355.701613333,1768044170.9808896,-0.02,0.09,0.996,0.061,0.244,-0.732,-39.559,-39.247,-47.073,5.207,1.278,-162.398,
355713671917,355711671917,355.713671917,355.711671917,1768044170.9909537,-0.02,0.09,0.996,0.061,0.244,-0.732,-39.52,-39.221,-47.034,5.207,1.28,-162.405,
355723709793,355721709793,355.723709793,355.721709793,1768044171.0009954,-0.02,0.09,0.996,0.061,0.244,-0.671,-39.533,-39.234,-47.06,5.208,1.281,-162.413,
355733670670,355731670670,355.73367067,355.73167067,1768044171.0110192,-0.02,0.09,0.996,0.122,0.244,-0.732,-39.533,-39.234,-47.06,5.209,1.283,-162.42,
355743929626,355741929626,355.743929626,355.741929626,1768044171.0212345,-0.02,0.09,0.996,0.122,0.305,-0.732,-39.533,-39.234,-47.086,5.211,1.284,-162.427,
355753968669,355751968669,355.753968669,355.751968669,1768044171.0312924,-0.02,0.09,0.996,0.122,0.305,-0.732,-39.52,-39.221,-47.099,5.212,1.286,-162.435,
355764190876,355762190876,355.764190876,355.762190876,1768044171.041515,-0.02,0.09,0.996,0.122,0.305,-0.671,-39.533,-39.221,-47.099,5.213,1.288,-162.442,
355774262876,355772262876,355.774262876,355.772262876,1768044171.0515435,-0.02,0.09,0.996,0.122,0.305,-0.671,-39.611,-39.377,-47.164,5.214,1.29,-162.449,
355784232211,355782232211,355.784232211,355.782232211,1768044171.06159,-0.02,0.09,0.996,0.183,0.305,-0.732,-39.663,-39.455,-47.19,5.216,1.292,-162.457,
355794280003,355792280003,355.794280003,355.792280003,1768044171.071638,-0.02,0.09,0.996,0.183,0.305,0.0,-39.533,-39.273,-47.099,5.217,1.294,-162.464,
355804331296,355802331296,355.804331296,355.802331296,1768044171.0816898,-0.02,0.09,0.996,0.183,0.366,-0.732,-39.494,-39.247,-47.034,5.219,1.297,-162.472,
355814475045,355812475045,355.814475045,355.812475045,1768044171.0917568,-0.02,0.09,0.996,0.183,0.366,-0.732,-39.507,-39.234,-47.06,5.221,1.299,-162.48,
355824643878,355822643878,355.824643878,355.822643878,1768044171.1019602,-0.02,0.09,0.996,0.244,0.366,-0.732,-39.52,-39.247,-47.086,5.223,1.301,-162.487,
355834661629,355832661629,355.834661629,355.832661629,1768044171.1120183,-0.02,0.09,0.996,0.244,0.366,-0.732,-39.52,-39.247,-47.086,5.224,1.303,-162.495,
355844768046,355842768046,355.844768046,355.842768046,1768044171.1220524,-0.02,0.09,0.996,0.244,0.366,-0.732,-39.507,-39.221,-47.099,5.227,1.306,-162.502,
355854924628,355852924628,355.854924628,355.852924628,1768044171.1322684,-0.02,0.09,0.996,0.244,0.366,-0.732,-39.494,-39.234,-47.112,5.229,1.308,-162.51,
355864929546,355862929546,355.864929546,355.862929546,1768044171.142254,-0.02,0.09,0.996,0.244,0.366,-0.732,-39.52,-39.286,-47.19,5.231,1.311,-162.517,
355875002713,355873002713,355.875002713,355.873002713,1768044171.15236,-0.02,0.09,0.996,0.305,0.366,-0.732,-39.572,-39.351,-47.268,5.233,1.313,-162.525,
355885134505,355883134505,355.885134505,355.883134505,1768044171.1624074,-0.021,0.089,0.995,0.305,0.366,-0.732,-39.52,-39.286,-47.151,5.236,1.316,-162.532,
355895287296,355893287296,355.895287296,355.893287296,1768044171.1726434,-0.021,0.089,0.995,0.305,0.366,-0.732,-39.481,-39.26,-47.099,5.238,1.319,-162.54,
355905312338,355903312338,355.905312338,355.903312338,1768044171.182666,-0.021,0.089,0.995,0.305,0.366,-0.732,-39.455,-39.234,-47.086,5.241,1.322,-162.547,
355915365089,355913365089,355.915365089,355.913365089,1768044171.1927228,-0.021,0.089,0.995,0.305,0.366,-0.732,-39.455,-39.26,-47.099,5.244,1.324,-162.556,
355925611796,355923611796,355.925611796,355.923611796,1768044171.202935,-0.021,0.089,0.995,0.305,0.366,-0.732,-39.494,-39.273,-47.099,5.246,1.327,-162.563,
355935624589,355933624589,355.935624589,355.933624589,1768044171.212976,-0.021,0.089,0.995,0.305,0.366,-0.732,-39.455,-39.273,-47.099,5.249,1.329,-162.571,
355945721964,355943721964,355.945721964,355.943721964,1768044171.2230272,-0.021,0.089,0.995,0.366,0.366,-0.732,-39.455,-39.273,-47.099,5.251,1.332,-162.578,
355955892546,355953892546,355.955892546,355.953892546,1768044171.2332509,-0.021,0.089,0.995,0.366,0.366,-0.732,-39.442,-39.286,-47.216,5.254,1.334,-162.586,
355965823090,355963823090,355.96582309,355.96382309,1768044171.243155,-0.021,0.089,0.995,0.366,0.366,-0.732,-39.533,-39.455,-47.294,5.257,1.337,-162.593,
355975820716,355973820716,355.975820716,355.973820716,1768044171.2531662,-0.021,0.089,0.995,0.366,0.366,-0.732,-39.507,-39.364,-47.177,5.259,1.339,-162.6,
355985929758,355983929758,355.985929758,355.983929758,1768044171.2632818,-0.021,0.089,0.995,0.366,0.366,-0.732,-39.468,-39.286,-47.073,5.262,1.342,-162.608,
355996078174,355994078174,355.996078174,355.994078174,1768044171.2734323,-0.021,0.089,0.995,0.366,0.366,-0.732,-39.442,-39.273,-47.06,5.265,1.344,-162.615,
356006174091,356004174091,356.006174091,356.004174091,1768044171.2835324,-0.021,0.089,0.995,0.366,0.305,0.0,-39.455,-39.286,-47.073,5.268,1.346,-162.623,
356016239966,356014239966,356.016239966,356.014239966,1768044171.2935293,-0.022,0.089,0.995,0.366,0.305,-0.671,-39.494,-39.299,-47.099,5.271,1.348,-162.631,
356026285717,356024285717,356.026285717,356.024285717,1768044171.303643,-0.022,0.089,0.995,0.366,0.305,-0.732,-39.468,-39.286,-47.073,5.273,1.351,-162.638,
356036500049,356034500049,356.036500049,356.034500049,1768044171.3138506,-0.022,0.089,0.995,0.366,0.305,-0.732,-39.468,-39.286,-47.086,5.276,1.354,-162.645,
356046571758,356044571758,356.046571758,356.044571758,1768044171.323857,-0.022,0.089,0.995,0.366,0.305,-0.732,-39.442,-39.299,-47.112,5.279,1.356,-162.653,
356056551301,356054551301,356.056551301,356.054551301,1768044171.3338876,-0.022,0.089,0.995,0.366,0.305,-0.732,-39.611,-39.637,-47.203,5.282,1.358,-162.66,
356066809383,356064809383,356.066809383,356.064809383,1768044171.3441136,-0.022,0.089,0.995,0.366,0.244,-0.671,-39.507,-39.481,-47.177,5.284,1.36,-162.667,
356076834717,356074834717,356.076834717,356.074834717,1768044171.354157,-0.022,0.089,0.995,0.366,0.244,-0.671,-39.442,-39.351,-47.086,5.287,1.362,-162.675,
356086855968,356084855968,356.086855968,356.084855968,1768044171.3641992,-0.022,0.089,0.995,0.366,0.244,-0.671,-39.416,-39.312,-46.995,5.289,1.364,-162.682,
356097125424,356095125424,356.097125424,356.095125424,1768044171.3744714,-0.022,0.089,0.995,0.366,0.244,-0.671,-39.442,-39.325,-47.086,5.292,1.365,-162.689,
356107187508,356105187508,356.107187508,356.105187508,1768044171.3845317,-0.022,0.089,0.995,0.366,0.183,-0.671,-39.442,-39.325,-47.099,5.294,1.367,-162.696,
356117213134,356115213134,356.117213134,356.115213134,1768044171.3945532,-0.022,0.089,0.995,0.366,0.183,-0.671,-39.416,-39.325,-47.112,5.297,1.368,-162.704,
356127423383,356125423383,356.127423383,356.125423383,1768044171.4047809,-0.022,0.089,0.995,0.366,0.183,-0.671,-39.403,-39.299,-47.125,5.299,1.369,-162.712,
356137473509,356135473509,356.137473509,356.135473509,1768044171.4148223,-0.023,0.09,0.995,0.366,0.183,-0.671,-39.403,-39.312,-47.125,5.301,1.37,-162.719,
356147553967,356145553967,356.147553967,356.145553967,1768044171.4248688,-0.023,0.09,0.995,0.366,0.122,-0.671,-39.533,-39.546,-47.294,5.304,1.372,-162.726,
356157563260,356155563260,356.15756326,356.15556326,1768044171.4349205,-0.023,0.09,0.995,0.366,0.122,-0.671,-39.52,-39.468,-47.19,5.306,1.373,-162.733,
356167601136,356165601136,356.167601136,356.165601136,1768044171.4449515,-0.023,0.09,0.995,0.305,0.122,-0.671,-39.442,-39.351,-47.112,5.308,1.374,-162.741,
356177810801,356175810801,356.177810801,356.175810801,1768044171.4551623,-0.023,0.09,0.995,0.305,0.061,-0.671,-39.39,-39.299,-47.086,5.31,1.375,-162.748,
356187872302,356185872302,356.187872302,356.185872302,1768044171.4652257,-0.023,0.09,0.995,0.305,0.061,-0.671,-39.39,-39.299,-47.112,5.312,1.375,-162.755,
356197862637,356195862637,356.197862637,356.195862637,1768044171.47522,-0.023,0.09,0.995,0.305,0.061,-0.671,-39.39,-39.325,-47.086,5.314,1.376,-162.762,
356208145801,356206145801,356.208145801,356.206145801,1768044171.4854765,-0.023,0.09,0.995,0.305,0.061,-0.671,-39.39,-39.325,-47.073,5.316,1.376,-162.769,
356218172594,356216172594,356.218172594,356.216172594,1768044171.49553,-0.023,0.09,0.995,0.305,0.0,0.0,-39.39,-39.325,-47.099,5.318,1.377,-162.776,
356228224761,356226224761,356.228224761,356.226224761,1768044171.5055819,-0.023,0.09,0.995,0.305,0.0,-0.671,-39.39,-39.338,-47.138,5.319,1.376,-162.784,
356238253304,356236253304,356.238253304,356.236253304,1768044171.5156012,-0.023,0.09,0.995,0.305,0.0,-0.671,-39.403,-39.351,-47.346,5.321,1.376,-162.791,
356248539968,356246539968,356.248539968,356.246539968,1768044171.5258465,-0.023,0.09,0.995,0.244,0.0,-0.671,-39.442,-39.442,-47.229,5.322,1.376,-162.798,
356258538761,356256538761,356.258538761,356.256538761,1768044171.535894,-0.023,0.09,0.995,0.244,0.0,-0.671,-39.429,-39.351,-47.138,5.324,1.375,-162.805,
356268584512,356266584512,356.268584512,356.266584512,1768044171.5459368,-0.024,0.09,0.995,0.244,0.0,-0.671,-39.416,-39.325,-47.073,5.325,1.375,-162.812,
356278871760,356276871760,356.27887176,356.27687176,1768044171.5561538,-0.024,0.09,0.995,0.244,-0.061,-0.671,-39.403,-39.338,-47.099,5.326,1.374,-162.819,
356288867928,356286867928,356.288867928,356.286867928,1768044171.5662098,-0.024,0.09,0.995,0.244,-0.061,-0.671,-39.39,-39.351,-47.125,5.327,1.374,-162.826,
356298959469,356296959469,356.298959469,356.296959469,1768044171.5762668,-0.024,0.09,0.995,0.183,-0.061,-0.671,-39.364,-39.338,-47.125,5.328,1.373,-162.833,
356309071428,356307071428,356.309071428,356.307071428,1768044171.5864294,-0.024,0.09,0.995,0.183,-0.122,-0.671,-39.364,-39.351,-47.125,5.329,1.372,-162.84,
356319117179,356317117179,356.319117179,356.317117179,1768044171.5964708,-0.024,0.09,0.995,0.183,-0.122,0.0,-39.39,-39.351,-47.112,5.33,1.37,-162.847,
356329218345,356327218345,356.329218345,356.327218345,1768044171.6065598,-0.024,0.09,0.995,0.183,-0.183,-0.671,-39.403,-39.364,-47.216,5.331,1.369,-162.855,
356339272263,356337272263,356.339272263,356.337272263,1768044171.6166298,-0.024,0.09,0.995,0.183,-0.183,-0.671,-39.546,-39.702,-47.216,5.332,1.367,-162.861,
356349669467,356347669467,356.349669467,356.347669467,1768044171.6269507,-0.024,0.09,0.995,0.183,-0.183,-0.671,-39.416,-39.468,-47.125,5.333,1.365,-162.868,
356359725426,356357725426,356.359725426,356.357725426,1768044171.6370113,-0.024,0.09,0.995,0.183,-0.183,-0.671,-39.39,-39.364,-47.06,5.333,1.363,-162.875,
356369858676,356367858676,356.369858676,356.367858676,1768044171.6472123,-0.024,0.09,0.995,0.183,-0.244,-0.671,-39.377,-39.351,-47.06,5.334,1.361,-162.882,
356379906177,356377906177,356.379906177,356.377906177,1768044171.6572611,-0.024,0.09,0.995,0.183,-0.244,-0.671,-39.39,-39.377,-47.086,5.334,1.359,-162.888,
356390212091,356388212091,356.390212091,356.388212091,1768044171.6675062,-0.024,0.09,0.995,0.183,-0.244,-0.671,-39.364,-39.364,-47.112,5.335,1.356,-162.895,
356400244717,356398244717,356.400244717,356.398244717,1768044171.6775284,-0.024,0.09,0.995,0.122,-0.244,-0.671,-39.364,-39.351,-47.099,5.335,1.354,-162.902,
356410249343,356408249343,356.410249343,356.408249343,1768044171.6875744,-0.024,0.09,0.995,0.122,-0.305,-0.671,-39.364,-39.39,-47.099,5.336,1.351,-162.909,
356420282261,356418282261,356.420282261,356.418282261,1768044171.6976368,-0.024,0.09,0.995,0.122,-0.305,0.0,-39.377,-39.39,-47.099,5.336,1.348,-162.915,
356430330636,356428330636,356.430330636,356.428330636,1768044171.707647,-0.024,0.09,0.995,0.122,-0.305,-0.61,-39.585,-39.741,-47.203,5.337,1.345,-162.923,
356440559260,356438559260,356.44055926,356.43855926,1768044171.7178414,-0.024,0.09,0.995,0.122,-0.366,-0.61,-39.481,-39.481,-47.06,5.337,1.342,-162.929,
356450648468,356448648468,356.450648468,356.448648468,1768044171.727935,-0.024,0.09,0.995,0.122,-0.366,-0.61,-39.429,-39.39,-47.021,5.338,1.339,-162.936,
356460650178,356458650178,356.460650178,356.458650178,1768044171.737995,-0.024,0.09,0.995,0.122,-0.366,-0.61,-39.403,-39.364,-47.047,5.338,1.336,-162.943,
356470836219,356468836219,356.470836219,356.468836219,1768044171.748192,-0.024,0.09,0.995,0.122,-0.366,-0.61,-39.377,-39.377,-47.086,5.338,1.333,-162.949,
356480977926,356478977926,356.480977926,356.478977926,1768044171.758261,-0.024,0.09,0.995,0.122,-0.366,-0.61,-39.377,-39.377,-47.086,5.338,1.329,-162.956,
356490942303,356488942303,356.490942303,356.488942303,1768044171.7682922,-0.024,0.09,0.995,0.122,-0.366,-0.61,-39.377,-39.377,-47.086,5.338,1.326,-162.963,
356501152552,356499152552,356.501152552,356.499152552,1768044171.7785044,-0.024,0.09,0.995,0.122,-0.427,-0.61,-39.377,-39.364,-47.086,5.339,1.322,-162.969,
356511189261,356509189261,356.511189261,356.509189261,1768044171.7885451,-0.024,0.09,0.995,0.122,-0.427,-0.61,-39.364,-39.377,-47.086,5.339,1.319,-162.976,
356521335052,356519335052,356.521335052,356.519335052,1768044171.7986186,-0.024,0.091,0.995,0.122,-0.427,-0.61,-39.481,-39.494,-47.333,5.339,1.315,-162.982,
356531315471,356529315471,356.531315471,356.529315471,1768044171.8086004,-0.024,0.091,0.995,0.122,-0.427,-0.61,-39.429,-39.468,-47.138,5.339,1.311,-162.989,
356541490136,356539490136,356.541490136,356.539490136,1768044171.8188465,-0.024,0.091,0.995,0.122,-0.427,-0.61,-39.416,-39.39,-47.06,5.339,1.307,-162.996,
356551535595,356549535595,356.551535595,356.549535595,1768044171.828893,-0.024,0.091,0.995,0.122,-0.427,-0.61,-39.39,-39.364,-47.047,5.339,1.302,-163.003,
356561552763,356559552763,356.561552763,356.559552763,1768044171.8389113,-0.024,0.091,0.995,0.122,-0.427,-0.61,-39.377,-39.351,-47.034,5.34,1.298,-163.009,
356571719262,356569719262,356.571719262,356.569719262,1768044171.8490052,-0.024,0.091,0.995,0.122,-0.427,-0.61,-39.377,-39.377,-47.021,5.34,1.294,-163.016,
356581931261,356579931261,356.581931261,356.579931261,1768044171.8592238,-0.024,0.091,0.995,0.122,-0.427,-0.61,-39.377,-39.377,-47.034,5.34,1.29,-163.022,
356591930929,356589930929,356.591930929,356.589930929,1768044171.869282,-0.024,0.091,0.995,0.122,-0.488,-0.61,-39.39,-39.39,-47.047,5.341,1.286,-163.029,
356601993013,356599993013,356.601993013,356.599993013,1768044171.8793268,-0.024,0.091,0.995,0.122,-0.488,-0.61,-39.403,-39.39,-47.06,5.341,1.282,-163.035,
356612030889,356610030889,356.612030889,356.610030889,1768044171.889384,-0.024,0.091,0.995,0.122,-0.488,-0.61,-39.377,-39.39,-47.268,5.342,1.278,-163.042,
356622194180,356620194180,356.62219418,356.62019418,1768044171.8995442,-0.024,0.091,0.995,0.122,-0.488,-0.61,-39.494,-39.533,-47.151,5.342,1.274,-163.048,
356632350763,356630350763,356.632350763,356.630350763,1768044171.909645,-0.024,0.091,0.995,0.122,-0.488,-0.61,-39.455,-39.429,-47.073,5.342,1.27,-163.055,
356642514345,356640514345,356.642514345,356.640514345,1768044171.9198673,-0.024,0.091,0.995,0.122,-0.488,-0.61,-39.442,-39.364,-47.021,5.343,1.265,-163.062,
356652548429,356650548429,356.652548429,356.650548429,1768044171.9299028,-0.023,0.091,0.996,0.122,-0.488,-0.61,-39.442,-39.39,-47.034,5.344,1.261,-163.068,
356662624221,356660624221,356.662624221,356.660624221,1768044171.9399023,-0.023,0.091,0.996,0.122,-0.488,-0.61,-39.429,-39.39,-47.06,5.344,1.256,-163.075,
356672665306,356670665306,356.672665306,356.670665306,1768044171.9500163,-0.023,0.091,0.996,0.183,-0.488,-0.61,-39.416,-39.39,-47.021,5.345,1.252,-163.081,
356682874096,356680874096,356.682874096,356.680874096,1768044171.9602225,-0.023,0.091,0.996,0.183,-0.427,-0.61,-39.429,-39.403,-47.021,5.345,1.248,-163.088,
356692891264,356690891264,356.692891264,356.690891264,1768044171.9702508,-0.023,0.091,0.996,0.183,-0.427,-0.61,-39.442,-39.416,-46.995,5.346,1.244,-163.094,
356703006139,356701006139,356.703006139,356.701006139,1768044171.9802916,-0.023,0.091,0.996,0.183,-0.427,-0.61,-39.429,-39.416,-47.06,5.347,1.239,-163.101,
356712954182,356710954182,356.712954182,356.710954182,1768044171.9902406,-0.023,0.091,0.996,0.183,-0.427,-0.61,-39.598,-39.741,-47.086,5.348,1.235,-163.107,
356723102598,356721102598,356.723102598,356.721102598,1768044172.0004563,-0.023,0.091,0.996,0.183,-0.427,-0.61,-39.494,-39.507,-46.982,5.348,1.231,-163.114,
356733166724,356731166724,356.733166724,356.731166724,1768044172.0105176,-0.023,0.091,0.996,0.183,-0.427,-0.61,-39.429,-39.429,-46.995,5.349,1.228,-163.12,
356743190017,356741190017,356.743190017,356.741190017,1768044172.0205417,-0.023,0.091,0.996,0.183,-0.427,0.0,-39.403,-39.403,-47.008,5.35,1.223,-163.127,
356753450431,356751450431,356.753450431,356.751450431,1768044172.0307684,-0.023,0.091,0.996,0.183,-0.427,-0.61,-39.442,-39.416,-47.034,5.351,1.22,-163.134,
356763456516,356761456516,356.763456516,356.761456516,1768044172.0408132,-0.023,0.091,0.996,0.244,-0.427,-0.61,-39.429,-39.416,-47.034,5.352,1.216,-163.14,
356773534350,356771534350,356.77353435,356.77153435,1768044172.0508604,-0.022,0.09,0.996,0.244,-0.427,-0.61,-39.429,-39.416,-47.034,5.354,1.213,-163.147,
356783779598,356781779598,356.783779598,356.781779598,1768044172.0610652,-0.022,0.09,0.996,0.244,-0.427,-0.61,-39.442,-39.416,-47.034,5.355,1.209,-163.153,
356793715975,356791715975,356.793715975,356.791715975,1768044172.0710664,-0.022,0.09,0.996,0.244,-0.366,-0.61,-39.455,-39.416,-47.021,5.355,1.205,-163.16,
356803838433,356801838433,356.803838433,356.801838433,1768044172.0811622,-0.021,0.09,0.996,0.244,-0.366,-0.61,-39.585,-39.624,-47.151,5.357,1.201,-163.166,
356813916558,356811916558,356.813916558,356.811916558,1768044172.0912027,-0.022,0.09,0.996,0.244,-0.366,-0.61,-39.494,-39.481,-47.021,5.358,1.198,-163.173,
356823964059,356821964059,356.823964059,356.821964059,1768044172.1012511,-0.022,0.09,0.996,0.244,-0.366,-0.61,-39.455,-39.403,-46.969,5.359,1.195,-163.179,
356834113350,356832113350,356.83411335,356.83211335,1768044172.1114678,-0.021,0.09,0.996,0.244,-0.305,-0.61,-39.429,-39.39,-46.982,5.36,1.192,-163.186,
356844168434,356842168434,356.844168434,356.842168434,1768044172.1215212,-0.021,0.09,0.996,0.244,-0.305,-0.61,-39.429,-39.403,-47.008,5.361,1.189,-163.193,
356854201643,356852201643,356.854201643,356.852201643,1768044172.131556,-0.021,0.09,0.996,0.244,-0.305,0.0,-39.429,-39.442,-47.008,5.363,1.186,-163.199,
356864250019,356862250019,356.864250019,356.862250019,1768044172.141599,-0.022,0.09,0.996,0.244,-0.305,-0.61,-39.416,-39.429,-46.982,5.364,1.183,-163.206,
356874480101,356872480101,356.874480101,356.872480101,1768044172.1518226,-0.022,0.09,0.996,0.305,-0.244,-0.61,-39.429,-39.442,-47.008,5.365,1.181,-163.213,
356884557643,356882557643,356.884557643,356.882557643,1768044172.1618578,-0.022,0.09,0.996,0.305,-0.244,-0.671,-39.468,-39.442,-46.995,5.367,1.179,-163.22,
356894556728,356892556728,356.894556728,356.892556728,1768044172.1719065,-0.022,0.09,0.996,0.305,-0.244,-0.671,-39.481,-39.494,-47.203,5.368,1.177,-163.227,
356904776893,356902776893,356.904776893,356.902776893,1768044172.1821294,-0.021,0.09,0.997,0.305,-0.244,-0.671,-39.481,-39.468,-47.073,5.369,1.175,-163.233,
356914863768,356912863768,356.914863768,356.912863768,1768044172.1921475,-0.021,0.09,0.997,0.305,-0.244,-0.671,-39.416,-39.429,-46.995,5.371,1.172,-163.24,
356925096183,356923096183,356.925096183,356.923096183,1768044172.202394,-0.021,0.09,0.997,0.305,-0.183,-0.671,-39.403,-39.416,-46.956,5.372,1.17,-163.247,
356934981811,356932981811,356.934981811,356.932981811,1768044172.2122655,-0.021,0.09,0.997,0.305,-0.183,-0.671,-39.403,-39.429,-46.956,5.373,1.169,-163.254,
356945159977,356943159977,356.945159977,356.943159977,1768044172.222518,-0.021,0.09,0.997,0.305,-0.183,-0.671,-39.429,-39.455,-46.982,5.374,1.167,-163.261,
356955291768,356953291768,356.955291768,356.953291768,1768044172.2325706,-0.021,0.09,0.997,0.305,-0.122,-0.671,-39.403,-39.468,-46.982,5.375,1.166,-163.268,
356965222312,356963222312,356.965222312,356.963222312,1768044172.242567,-0.021,0.09,0.997,0.305,-0.122,-0.671,-39.39,-39.468,-46.969,5.377,1.164,-163.275,
356975426727,356973426727,356.975426727,356.973426727,1768044172.2527792,-0.021,0.09,0.997,0.305,-0.122,-0.671,-39.429,-39.468,-46.93,5.378,1.163,-163.282,
356985469270,356983469270,356.98546927,356.98346927,1768044172.2628236,-0.021,0.09,0.997,0.305,-0.061,-0.671,-39.507,-39.663,-47.034,5.379,1.162,-163.289,
356995597853,356993597853,356.995597853,356.993597853,1768044172.2728841,-0.021,0.09,0.997,0.305,-0.061,-0.671,-39.507,-39.663,-46.943,5.38,1.162,-163.296,
357005625521,357003625521,357.005625521,357.003625521,1768044172.2829165,-0.021,0.09,0.997,0.305,-0.061,-0.671,-39.442,-39.507,-46.878,5.381,1.161,-163.303,
357015827311,357013827311,357.015827311,357.013827311,1768044172.293133,-0.021,0.09,0.997,0.305,-0.061,-0.671,-39.416,-39.468,-46.865,5.382,1.161,-163.31,
357025862854,357023862854,357.025862854,357.023862854,1768044172.303177,-0.021,0.09,0.997,0.305,0.0,-0.671,-39.416,-39.481,-46.878,5.383,1.161,-163.317,
357035866605,357033866605,357.035866605,357.033866605,1768044172.3131938,-0.021,0.09,0.997,0.305,0.0,-0.671,-39.403,-39.494,-46.891,5.384,1.161,-163.324,
357046087937,357044087937,357.046087937,357.044087937,1768044172.3234444,-0.021,0.09,0.996,0.305,0.0,-0.671,-39.403,-39.481,-46.865,5.385,1.161,-163.331,
357056153812,357054153812,357.056153812,357.054153812,1768044172.3335068,-0.021,0.09,0.996,0.305,0.0,-0.671,-39.403,-39.468,-46.891,5.386,1.161,-163.338,
357066185563,357064185563,357.066185563,357.064185563,1768044172.3435402,-0.021,0.09,0.997,0.305,0.0,0.0,-39.403,-39.481,-46.891,5.387,1.161,-163.345,
357076300146,357074300146,357.076300146,357.074300146,1768044172.3535838,-0.021,0.09,0.996,0.305,0.0,-0.671,-39.52,-39.689,-46.995,5.388,1.162,-163.353,
357086441563,357084441563,357.086441563,357.084441563,1768044172.3637977,-0.021,0.09,0.997,0.305,0.0,-0.671,-39.52,-39.702,-47.047,5.389,1.162,-163.36,
357096522896,357094522896,357.096522896,357.094522896,1768044172.3738425,-0.021,0.09,0.997,0.244,0.061,-0.671,-39.403,-39.546,-46.969,5.39,1.163,-163.367,
357106592563,357104592563,357.106592563,357.104592563,1768044172.3838918,-0.021,0.09,0.997,0.244,0.061,-0.671,-39.351,-39.494,-46.93,5.39,1.164,-163.374,
357116759354,357114759354,357.116759354,357.114759354,1768044172.3941152,-0.021,0.09,0.996,0.244,0.061,-0.671,-39.351,-39.481,-46.956,5.391,1.165,-163.381,
357126752897,357124752897,357.126752897,357.124752897,1768044172.404106,-0.021,0.09,0.997,0.244,0.061,-0.671,-39.351,-39.494,-46.956,5.392,1.166,-163.389,
357137030812,357135030812,357.137030812,357.135030812,1768044172.414374,-0.021,0.09,0.997,0.244,0.122,-0.671,-39.351,-39.507,-46.956,5.393,1.167,-163.396,
357147041855,357145041855,357.147041855,357.145041855,1768044172.424393,-0.021,0.09,0.997,0.244,0.122,-0.671,-39.364,-39.52,-46.956,5.393,1.169,-163.403,
357157125230,357155125230,357.15712523,357.15512523,1768044172.4344802,-0.021,0.09,0.996,0.244,0.122,-0.671,-39.377,-39.507,-46.943,5.394,1.171,-163.41,
357167149398,357165149398,357.167149398,357.165149398,1768044172.4445035,-0.021,0.09,0.996,0.244,0.122,0.0,-39.403,-39.559,-47.06,5.395,1.172,-163.418,
357177399604,357175399604,357.177399604,357.175399604,1768044172.4547536,-0.021,0.09,0.996,0.244,0.183,-0.671,-39.468,-39.585,-47.099,5.395,1.174,-163.426,
357187382064,357185382064,357.187382064,357.185382064,1768044172.4647357,-0.021,0.09,0.996,0.244,0.183,-0.671,-39.377,-39.533,-46.982,5.396,1.176,-163.433,
357197512689,357195512689,357.197512689,357.195512689,1768044172.4748216,-0.021,0.09,0.996,0.244,0.183,-0.671,-39.338,-39.494,-46.943,5.396,1.178,-163.44,
357207543856,357205543856,357.207543856,357.205543856,1768044172.4848824,-0.021,0.09,0.996,0.244,0.183,-0.671,-39.351,-39.494,-46.956,5.397,1.181,-163.448,
357217617023,357215617023,357.217617023,357.215617023,1768044172.4949155,-0.021,0.09,0.996,0.244,0.244,-0.671,-39.351,-39.533,-46.969,5.397,1.183,-163.455,
357227815897,357225815897,357.227815897,357.225815897,1768044172.5051403,-0.021,0.09,0.996,0.244,0.244,-0.732,-39.325,-39.533,-46.956,5.397,1.186,-163.462,
357237893148,357235893148,357.237893148,357.235893148,1768044172.5151868,-0.021,0.09,0.996,0.244,0.244,-0.732,-39.338,-39.52,-46.969,5.398,1.188,-163.47,
357247889899,357245889899,357.247889899,357.245889899,1768044172.5252402,-0.021,0.09,0.996,0.244,0.244,-0.732,-39.338,-39.52,-46.982,5.398,1.191,-163.477,
357258111231,357256111231,357.258111231,357.256111231,1768044172.5354552,-0.021,0.09,0.996,0.244,0.244,-0.732,-39.338,-39.533,-47.047,5.398,1.194,-163.484,
357268279772,357266279772,357.268279772,357.266279772,1768044172.5456388,-0.021,0.09,0.996,0.183,0.305,-0.732,-39.429,-39.741,-47.125,5.398,1.197,-163.493,
357278829808,357276829808,357.278829808,357.276829808,1768044172.55619,-0.021,0.09,0.996,0.183,0.305,-0.732,-39.39,-39.611,-46.995,5.398,1.2,-163.5,
357289271929,357287271929,357.289271929,357.287271929,1768044172.5666304,-0.021,0.09,0.996,0.183,0.305,-0.732,-39.338,-39.52,-46.93,5.398,1.203,-163.508,
357299643759,357297643759,357.299643759,357.297643759,1768044172.5770028,-0.021,0.09,0.996,0.183,0.305,-0.732,-39.338,-39.52,-46.956,5.399,1.206,-163.516,
357310169295,357308169295,357.310169295,357.308169295,1768044172.5875309,-0.021,0.09,0.996,0.183,0.305,-0.732,-39.325,-39.546,-46.969,5.399,1.209,-163.523,
357320611416,357318611416,357.320611416,357.318611416,1768044172.5979552,-0.021,0.09,0.996,0.183,0.305,-0.732,-39.351,-39.546,-46.969,5.399,1.213,-163.531,
357331025246,357329025246,357.331025246,357.329025246,1768044172.6083827,-0.021,0.09,0.996,0.183,0.305,-0.732,-39.351,-39.559,-46.969,5.399,1.216,-163.539,
357341386576,357339386576,357.341386576,357.339386576,1768044172.6187513,-0.021,0.09,0.996,0.183,0.305,-0.732,-39.338,-39.546,-46.969,5.399,1.22,-163.547,
357351771239,357349771239,357.351771239,357.349771239,1768044172.629125,-0.021,0.09,0.996,0.183,0.366,-0.732,-39.325,-39.559,-47.021,5.399,1.223,-163.554,
357362201693,357360201693,357.362201693,357.360201693,1768044172.6395597,-0.021,0.09,0.996,0.183,0.366,0.0,-39.546,-39.91,-47.099,5.399,1.227,-163.562,
357372636523,357370636523,357.372636523,357.370636523,1768044172.649927,-0.021,0.09,0.996,0.183,0.366,-0.732,-39.416,-39.689,-46.982,5.399,1.23,-163.57,
357383119768,357381119768,357.383119768,357.381119768,1768044172.6604784,-0.021,0.09,0.996,0.183,0.366,-0.732,-39.351,-39.585,-46.943,5.398,1.234,-163.577,
357393511723,357391511723,357.393511723,357.391511723,1768044172.670824,-0.021,0.09,0.996,0.183,0.366,-0.732,-39.325,-39.585,-46.969,5.398,1.238,-163.586,
357403909511,357401909511,357.403909511,357.401909511,1768044172.681201,-0.021,0.09,0.996,0.183,0.366,-0.732,-39.312,-39.585,-46.982,5.398,1.241,-163.593,
357414270549,357412270549,357.414270549,357.412270549,1768044172.6916304,-0.021,0.09,0.995,0.183,0.366,-0.732,-39.325,-39.585,-46.943,5.398,1.245,-163.601,
357424610588,357422610588,357.424610588,357.422610588,1768044172.701972,-0.021,0.09,0.995,0.122,0.366,-0.732,-39.312,-39.585,-46.956,5.397,1.248,-163.609,
357435220124,357433220124,357.435220124,357.433220124,1768044172.7125793,-0.021,0.09,0.995,0.122,0.366,-0.732,-39.312,-39.585,-46.982,5.397,1.252,-163.616,
357445598662,357443598662,357.445598662,357.443598662,1768044172.7229576,-0.021,0.09,0.995,0.122,0.305,-0.732,-39.338,-39.624,-47.047,5.397,1.256,-163.624,
357455981867,357453981867,357.455981867,357.453981867,1768044172.7333465,-0.021,0.09,0.995,0.122,0.366,-0.732,-39.442,-39.767,-47.164,5.397,1.259,-163.632,
357466372947,357464372947,357.466372947,357.464372947,1768044172.7437325,-0.021,0.09,0.995,0.0,0.0,-0.732,-39.338,-39.624,-47.034,5.395,1.259,-163.64,
357476939316,357474939316,357.476939316,357.474939316,1768044172.754301,-0.021,0.09,0.995,0.0,0.0,-0.732,-39.273,-39.572,-46.969,5.393,1.259,-163.647,
357487314646,357485314646,357.487314646,357.485314646,1768044172.7646773,-0.021,0.09,0.995,0.0,0.0,-0.732,-39.273,-39.546,-47.008,5.391,1.259,-163.656,
357497874890,357495874890,357.49787489,357.49587489,1768044172.7752337,-0.021,0.09,0.995,0.0,0.0,-0.732,-39.299,-39.559,-47.021,5.389,1.258,-163.663,
357508276178,357506276178,357.508276178,357.506276178,1768044172.78564,-0.021,0.09,0.995,0.0,0.0,0.0,-39.299,-39.585,-47.021,5.387,1.258,-163.671,
357518599301,357516599301,357.518599301,357.516599301,1768044172.7959614,-0.021,0.09,0.995,0.0,0.0,-0.732,-39.299,-39.598,-47.034,5.385,1.258,-163.679,
357529011672,357527011672,357.529011672,357.527011672,1768044172.8063757,-0.021,0.09,0.995,0.0,0.0,-0.732,-39.286,-39.611,-47.008,5.383,1.257,-163.686,
357539390210,357537390210,357.53939021,357.53739021,1768044172.8167517,-0.022,0.091,0.995,0.0,0.0,-0.732,-39.286,-39.598,-47.203,5.381,1.257,-163.694,
357549887747,357547887747,357.549887747,357.547887747,1768044172.8272505,-0.022,0.091,0.995,0.0,0.0,-0.732,-39.364,-39.689,-47.177,5.38,1.257,-163.702,
357560405992,357558405992,357.560405992,357.558405992,1768044172.8376973,-0.022,0.091,0.995,0.0,0.0,-0.732,-39.286,-39.585,-47.034,5.378,1.258,-163.71,
357570713656,357568713656,357.570713656,357.568713656,1768044172.8480797,-0.022,0.091,0.995,0.0,0.0,-0.671,-39.273,-39.572,-47.021,5.376,1.258,-163.717,
357581109402,357579109402,357.581109402,357.579109402,1768044172.8584723,-0.022,0.091,0.995,0.0,0.0,-0.671,-39.26,-39.559,-47.021,5.375,1.258,-163.725,
357591521482,357589521482,357.591521482,357.589521482,1768044172.8688726,-0.022,0.091,0.995,0.0,0.0,-0.671,-39.273,-39.598,-47.047,5.373,1.258,-163.733,
357602046435,357600046435,357.602046435,357.600046435,1768044172.879414,-0.022,0.091,0.995,0.0,0.0,-0.671,-39.273,-39.585,-47.034,5.371,1.258,-163.74,
357612502264,357610502264,357.612502264,357.610502264,1768044172.8898435,-0.022,0.091,0.995,0.0,0.0,-0.671,-39.273,-39.598,-47.034,5.37,1.258,-163.748,
357622883427,357620883427,357.622883427,357.620883427,1768044172.9002368,-0.022,0.091,0.995,0.0,0.0,-0.671,-39.273,-39.598,-47.034,5.368,1.258,-163.755,
357633205383,357631205383,357.633205383,357.631205383,1768044172.9105694,-0.022,0.091,0.995,0.0,0.0,-0.671,-39.26,-39.611,-47.164,5.367,1.259,-163.762,
357643668212,357641668212,357.643668212,357.641668212,1768044172.9210186,-0.022,0.091,0.995,0.0,0.0,-0.671,-39.403,-39.871,-47.112,5.365,1.259,-163.77,
357654082917,357652082917,357.654082917,357.652082917,1768044172.9314427,-0.022,0.091,0.995,0.0,0.0,-0.671,-39.312,-39.663,-47.008,5.364,1.259,-163.778,
357664506954,357662506954,357.664506954,357.662506954,1768044172.9417968,-0.023,0.091,0.995,0.0,0.0,-0.671,-39.273,-39.585,-46.969,5.362,1.259,-163.786,
357674702328,357672702328,357.674702328,357.672702328,1768044172.9519925,-0.023,0.091,0.995,0.0,0.0,-0.732,-39.273,-39.598,-47.008,5.361,1.26,-163.793,
357685011742,357683011742,357.685011742,357.683011742,1768044172.962373,-0.023,0.091,0.995,0.0,0.0,-0.732,-39.273,-39.598,-47.021,5.36,1.26,-163.8,
357695574612,357693574612,357.695574612,357.693574612,1768044172.972937,-0.023,0.091,0.995,0.0,0.0,-0.732,-39.26,-39.598,-47.021,5.358,1.261,-163.808,
357705969775,357703969775,357.705969775,357.703969775,1768044172.9833324,-0.023,0.091,0.995,0.0,0.0,-0.671,-39.26,-39.598,-47.06,5.357,1.261,-163.816,
357716363188,357714363188,357.716363188,357.714363188,1768044172.9937263,-0.023,0.091,0.995,0.0,0.0,-0.671,-39.273,-39.598,-47.034,5.355,1.262,-163.824,
357726769726,357724769726,357.726769726,357.724769726,1768044173.0040681,-0.023,0.091,0.995,0.0,0.0,-0.671,-39.325,-39.741,-47.112,5.354,1.262,-163.831,
357737180639,357735180639,357.737180639,357.735180639,1768044173.0144982,-0.023,0.091,0.995,0.0,0.0,-0.671,-39.403,-39.845,-47.138,5.353,1.263,-163.838,
357747519803,357745519803,357.747519803,357.745519803,1768044173.024884,-0.023,0.091,0.995,0.0,0.0,-0.671,-39.312,-39.663,-47.06,5.352,1.263,-163.846,
357757916132,357755916132,357.757916132,357.755916132,1768044173.0352817,-0.023,0.091,0.995,0.0,0.0,-0.671,-39.273,-39.598,-46.995,5.351,1.264,-163.853,
357768289129,357766289129,357.768289129,357.766289129,1768044173.0456429,-0.023,0.091,0.995,0.0,0.0,-0.671,-39.273,-39.585,-47.021,5.349,1.265,-163.861,
357778654834,357776654834,357.778654834,357.776654834,1768044173.0560024,-0.023,0.091,0.995,0.0,0.0,-0.671,-39.26,-39.611,-47.021,5.348,1.265,-163.868,
357789101038,357787101038,357.789101038,357.787101038,1768044173.06644,-0.023,0.091,0.995,0.0,0.0,-0.671,-39.26,-39.611,-47.021,5.347,1.266,-163.875,
357799538201,357797538201,357.799538201,357.797538201,1768044173.0768278,-0.023,0.091,0.995,0.0,0.0,-0.671,-39.286,-39.611,-47.008,5.346,1.266,-163.883,
357810072487,357808072487,357.810072487,357.808072487,1768044173.087424,-0.023,0.091,0.995,0.0,0.0,-0.671,-39.273,-39.611,-47.034,5.345,1.267,-163.89,
357820484858,357818484858,357.820484858,357.818484858,1768044173.0977824,-0.023,0.091,0.995,0.0,0.0,-0.671,-39.351,-39.715,-47.255,5.343,1.268,-163.897,
357830809731,357828809731,357.830809731,357.828809731,1768044173.1081755,-0.023,0.091,0.995,0.0,0.0,-0.671,-39.338,-39.702,-47.151,5.342,1.269,-163.904,
357841255060,357839255060,357.84125506,357.83925506,1768044173.1185484,-0.023,0.091,0.995,0.0,0.0,0.0,-39.286,-39.598,-47.06,5.341,1.27,-163.911,
357851574099,357849574099,357.851574099,357.849574099,1768044173.1289365,-0.023,0.091,0.995,0.0,0.0,-0.671,-39.234,-39.585,-47.021,5.34,1.271,-163.919,
357862026136,357860026136,357.862026136,357.860026136,1768044173.1393175,-0.023,0.091,0.995,0.0,0.0,-0.671,-39.221,-39.598,-47.034,5.339,1.271,-163.926,
357872379883,357870379883,357.872379883,357.870379883,1768044173.149672,-0.023,0.091,0.995,0.0,0.0,-0.671,-39.247,-39.611,-47.034,5.338,1.272,-163.933,
357882687256,357880687256,357.882687256,357.880687256,1768044173.16005,-0.023,0.091,0.995,0.0,0.0,-0.671,-39.273,-39.611,-47.021,5.337,1.273,-163.94,
357893076294,357891076294,357.893076294,357.891076294,1768044173.170439,-0.023,0.091,0.995,0.0,-0.122,-0.671,-39.234,-39.624,-47.008,5.336,1.273,-163.947,
357903516373,357901516373,357.903516373,357.901516373,1768044173.1808703,-0.023,0.091,0.995,0.0,-0.183,-0.671,-39.234,-39.624,-46.995,5.334,1.272,-163.954,
357914020326,357912020326,357.914020326,357.912020326,1768044173.1913795,-0.023,0.091,0.995,0.0,-0.183,-0.671,-39.208,-39.637,-47.203,5.333,1.27,-163.961,
357924375532,357922375532,357.924375532,357.922375532,1768044173.20173,-0.024,0.091,0.996,0.0,-0.183,-0.671,-39.312,-39.78,-47.112,5.331,1.269,-163.969,
357934854694,357932854694,357.934854694,357.932854694,1768044173.2121549,-0.024,0.091,0.996,0.0,-0.244,-0.671,-39.26,-39.65,-47.034,5.33,1.267,-163.975,
357945254815,357943254815,357.945254815,357.943254815,1768044173.2225423,-0.024,0.091,0.996,0.0,-0.244,-0.671,-39.221,-39.598,-46.995,5.328,1.266,-163.982,
357955575604,357953575604,357.955575604,357.953575604,1768044173.2329383,-0.024,0.091,0.996,0.0,-0.244,-0.671,-39.247,-39.611,-47.034,5.327,1.264,-163.99,
357966013642,357964013642,357.966013642,357.964013642,1768044173.243377,-0.024,0.091,0.996,0.0,-0.305,-0.671,-39.247,-39.624,-47.008,5.325,1.262,-163.996,
357976517303,357974517303,357.976517303,357.974517303,1768044173.25388,-0.024,0.091,0.996,0.0,-0.305,-0.671,-39.26,-39.637,-47.008,5.324,1.259,-164.004,
357986925008,357984925008,357.986925008,357.984925008,1768044173.2642238,-0.024,0.091,0.996,0.0,-0.305,-0.671,-39.247,-39.624,-46.995,5.323,1.257,-164.011,
357997296838,357995296838,357.997296838,357.995296838,1768044173.2746599,-0.024,0.091,0.996,0.0,-0.305,0.0,-39.221,-39.624,-47.021,5.321,1.255,-164.017,
358007661960,358005661960,358.00766196,358.00566196,1768044173.284991,-0.024,0.091,0.996,0.0,-0.366,-0.61,-39.364,-39.845,-47.099,5.32,1.252,-164.025,
358018093581,358016093581,358.018093581,358.016093581,1768044173.2953844,-0.024,0.091,0.996,0.0,-0.366,-0.61,-39.364,-39.858,-47.073,5.319,1.25,-164.031,
358028409703,358026409703,358.028409703,358.026409703,1768044173.3057747,-0.024,0.091,0.996,0.0,-0.366,-0.61,-39.273,-39.663,-46.982,5.318,1.247,-164.038,
358039011655,358037011655,358.039011655,358.037011655,1768044173.3163757,-0.024,0.091,0.996,0.0,-0.366,-0.61,-39.26,-39.611,-46.943,5.317,1.244,-164.045,
358049472151,358047472151,358.049472151,358.047472151,1768044173.326763,-0.024,0.09,0.996,0.0,-0.427,-0.61,-39.247,-39.637,-46.982,5.316,1.24,-164.052,
358059792648,358057792648,358.059792648,358.057792648,1768044173.3371546,-0.024,0.09,0.996,0.0,-0.427,-0.61,-39.247,-39.637,-46.995,5.315,1.237,-164.059,
358070356684,358068356684,358.070356684,358.068356684,1768044173.347714,-0.024,0.09,0.996,0.0,-0.427,-0.61,-39.247,-39.637,-47.008,5.314,1.234,-164.066,
358080737848,358078737848,358.080737848,358.078737848,1768044173.358096,-0.024,0.09,0.996,0.061,-0.427,-0.61,-39.26,-39.637,-46.995,5.313,1.23,-164.072,
358091145261,358089145261,358.091145261,358.089145261,1768044173.3685043,-0.024,0.09,0.996,0.061,-0.427,0.0,-39.273,-39.65,-46.982,5.312,1.226,-164.079,
358101519716,358099519716,358.101519716,358.099519716,1768044173.3788812,-0.024,0.09,0.996,0.061,-0.488,-0.61,-39.416,-39.858,-47.177,5.312,1.223,-164.086,
358111944920,358109944920,358.11194492,358.10994492,1768044173.3892674,-0.024,0.09,0.996,0.061,-0.488,-0.61,-39.351,-39.741,-47.06,5.312,1.22,-164.092,
358122248209,358120248209,358.122248209,358.120248209,1768044173.3996081,-0.024,0.09,0.996,0.122,-0.488,-0.61,-39.273,-39.624,-46.969,5.311,1.216,-164.099,
358132796495,358130796495,358.132796495,358.130796495,1768044173.4101567,-0.024,0.09,0.996,0.122,-0.488,-0.61,-39.26,-39.611,-46.969,5.311,1.212,-164.105,
358143233366,358141233366,358.143233366,358.141233366,1768044173.4205942,-0.024,0.09,0.996,0.122,-0.488,0.0,-39.286,-39.611,-46.93,5.312,1.208,-164.112,
358153630571,358151630571,358.153630571,358.151630571,1768044173.4309897,-0.024,0.09,0.996,0.122,-0.488,-0.61,-39.273,-39.624,-46.969,5.312,1.204,-164.119,
358164091942,358162091942,358.164091942,358.162091942,1768044173.4413755,-0.024,0.09,0.996,0.183,-0.488,-0.61,-39.273,-39.65,-46.956,5.312,1.201,-164.125,
358174399898,358172399898,358.174399898,358.172399898,1768044173.451761,-0.023,0.089,0.996,0.183,-0.488,-0.61,-39.273,-39.663,-46.969,5.313,1.197,-164.132,
358185014391,358183014391,358.185014391,358.183014391,1768044173.4623744,-0.023,0.089,0.996,0.244,-0.488,-0.61,-39.247,-39.663,-46.969,5.314,1.193,-164.139,
358195355597,358193355597,358.195355597,358.193355597,1768044173.4727142,-0.023,0.089,0.996,0.244,-0.488,-0.61,-39.273,-39.689,-47.177,5.315,1.189,-164.146,
358205600262,358203600262,358.205600262,358.203600262,1768044173.482964,-0.023,0.089,0.996,0.244,-0.488,-0.61,-39.273,-39.702,-47.021,5.315,1.186,-164.152,
358216054049,358214054049,358.216054049,358.214054049,1768044173.4934125,-0.023,0.089,0.996,0.244,-0.488,-0.61,-39.234,-39.65,-46.956,5.316,1.182,-164.158,
358226511045,358224511045,358.226511045,358.224511045,1768044173.5038753,-0.023,0.089,0.996,0.305,-0.488,-0.61,-39.221,-39.65,-46.93,5.318,1.178,-164.165,
358236886958,358234886958,358.236886958,358.234886958,1768044173.5142498,-0.023,0.089,0.996,0.305,-0.488,-0.61,-39.234,-39.676,-46.956,5.319,1.175,-164.172,
358247323537,358245323537,358.247323537,358.245323537,1768044173.5246825,-0.023,0.089,0.996,0.366,-0.488,-0.61,-39.234,-39.702,-46.93,5.321,1.171,-164.179,
358257665618,358255665618,358.257665618,358.255665618,1768044173.5350306,-0.023,0.089,0.996,0.366,-0.488,-0.61,-39.234,-39.689,-46.917,5.323,1.167,-164.185,
358268154113,358266154113,358.268154113,358.266154113,1768044173.5454571,-0.023,0.089,0.996,0.366,-0.488,-0.61,-39.234,-39.689,-46.917,5.325,1.164,-164.191,
358278624817,358276624817,358.278624817,358.276624817,1768044173.5559838,-0.023,0.089,0.996,0.427,-0.488,-0.61,-39.234,-39.689,-46.956,5.328,1.161,-164.198,
358289053229,358287053229,358.289053229,358.287053229,1768044173.5664132,-0.023,0.089,0.996,0.427,-0.488,-0.61,-39.364,-39.949,-47.06,5.33,1.158,-164.205,
358299642348,358297642348,358.299642348,358.297642348,1768044173.576941,-0.022,0.088,0.996,0.488,-0.427,-0.61,-39.325,-39.845,-46.956,5.333,1.154,-164.212,
358309822556,358307822556,358.309822556,358.307822556,1768044173.5871894,-0.022,0.088,0.996,0.488,-0.427,-0.61,-39.26,-39.728,-46.891,5.336,1.151,-164.218,
358320180678,358318180678,358.320180678,358.318180678,1768044173.5975378,-0.022,0.088,0.996,0.488,-0.427,0.0,-39.234,-39.689,-46.865,5.339,1.148,-164.224,
358330773880,358328773880,358.33077388,358.32877388,1768044173.6081336,-0.022,0.088,0.996,0.488,-0.427,-0.61,-39.247,-39.715,-46.891,5.342,1.145,-164.232,
358341171668,358339171668,358.341171668,358.339171668,1768044173.6185272,-0.022,0.088,0.996,0.549,-0.427,-0.61,-39.26,-39.702,-46.891,5.345,1.142,-164.238,
358351559540,358349559540,358.35155954,358.34955954,1768044173.6289191,-0.022,0.088,0.996,0.549,-0.366,-0.61,-39.247,-39.715,-46.904,5.348,1.139,-164.245,
358361956161,358359956161,358.361956161,358.359956161,1768044173.6393065,-0.022,0.088,0.996,0.549,-0.366,-0.61,-39.247,-39.702,-46.904,5.351,1.137,-164.251,
358372271408,358370271408,358.372271408,358.370271408,1768044173.6496332,-0.022,0.088,0.996,0.61,-0.366,-0.61,-39.247,-39.702,-46.891,5.355,1.134,-164.258,
358382723737,358380723737,358.382723737,358.380723737,1768044173.6600127,-0.022,0.088,0.996,0.61,-0.366,-0.61,-39.494,-40.079,-47.034,5.359,1.132,-164.265,
358393151858,358391151858,358.393151858,358.391151858,1768044173.670457,-0.022,0.088,0.996,0.61,-0.305,-0.61,-39.364,-39.845,-46.891,5.362,1.13,-164.271,
358403501814,358401501814,358.403501814,358.401501814,1768044173.6808455,-0.022,0.088,0.996,0.61,-0.305,-0.61,-39.299,-39.728,-46.839,5.367,1.128,-164.278,
358414117766,358412117766,358.414117766,358.412117766,1768044173.69141,-0.022,0.088,0.996,0.671,-0.244,-0.61,-39.247,-39.702,-46.839,5.37,1.127,-164.285,
358424376431,358422376431,358.424376431,358.422376431,1768044173.7017403,-0.021,0.088,0.995,0.671,-0.244,-0.61,-39.247,-39.702,-46.852,5.375,1.126,-164.292,
358434807468,358432807468,358.434807468,358.432807468,1768044173.7121713,-0.021,0.088,0.995,0.671,-0.244,-0.61,-39.247,-39.702,-46.865,5.379,1.124,-164.299,
358445202048,358443202048,358.445202048,358.443202048,1768044173.7225518,-0.021,0.088,0.995,0.671,-0.183,-0.61,-39.247,-39.728,-46.865,5.383,1.123,-164.305,
358455571836,358453571836,358.455571836,358.453571836,1768044173.7329354,-0.021,0.088,0.995,0.671,-0.183,-0.61,-39.247,-39.741,-46.865,5.387,1.122,-164.313,
358466139372,358464139372,358.466139372,358.464139372,1768044173.7435026,-0.021,0.088,0.995,0.671,-0.122,-0.671,-39.26,-39.754,-46.852,5.391,1.121,-164.319,
358476544160,358474544160,358.47654416,358.47454416,1768044173.753903,-0.021,0.088,0.995,0.671,-0.122,-0.671,-39.338,-39.845,-47.06,5.396,1.12,-164.327,
358486901699,358484901699,358.486901699,358.484901699,1768044173.7642603,-0.021,0.088,0.995,0.671,-0.122,-0.671,-39.286,-39.793,-46.904,5.4,1.12,-164.333,
358497316403,358495316403,358.497316403,358.495316403,1768044173.7746232,-0.021,0.088,0.995,0.732,-0.061,-0.671,-39.26,-39.741,-46.839,5.405,1.12,-164.341,
358507761733,358505761733,358.507761733,358.505761733,1768044173.785052,-0.021,0.088,0.995,0.732,-0.061,-0.671,-39.221,-39.741,-46.826,5.409,1.12,-164.348,
358518316144,358516316144,358.518316144,358.516316144,1768044173.7956069,-0.021,0.088,0.995,0.732,0.0,-0.671,-39.234,-39.754,-46.839,5.413,1.12,-164.354,
358528635183,358526635183,358.528635183,358.526635183,1768044173.8059974,-0.021,0.088,0.995,0.732,0.0,-0.671,-39.234,-39.767,-46.852,5.417,1.121,-164.362,
358539059220,358537059220,358.53905922,358.53705922,1768044173.816412,-0.021,0.088,0.995,0.671,0.0,-0.671,-39.247,-39.78,-46.865,5.421,1.122,-164.369,
358549577174,358547577174,358.549577174,358.547577174,1768044173.826936,-0.021,0.088,0.995,0.671,0.0,-0.671,-39.26,-39.78,-46.852,5.425,1.124,-164.377,
358559993920,358557993920,358.55999392,358.55799392,1768044173.8373215,-0.02,0.089,0.995,0.671,0.061,-0.671,-39.247,-39.78,-46.943,5.429,1.125,-164.384,
358570419708,358568419708,358.570419708,358.568419708,1768044173.84771,-0.02,0.089,0.995,0.671,0.061,-0.671,-39.364,-40.027,-47.008,5.434,1.126,-164.391,
358580769080,358578769080,358.58076908,358.57876908,1768044173.8580961,-0.02,0.089,0.995,0.671,0.122,-0.671,-39.325,-39.871,-46.904,5.437,1.128,-164.398,
358591302199,358589302199,358.591302199,358.589302199,1768044173.868664,-0.02,0.089,0.995,0.671,0.122,0.0,-39.286,-39.793,-46.839,5.442,1.129,-164.405,
358601686863,358599686863,358.601686863,358.599686863,1768044173.8790498,-0.02,0.089,0.995,0.61,0.122,-0.671,-39.26,-39.78,-46.826,5.445,1.131,-164.413,
358612060443,358610060443,358.612060443,358.610060443,1768044173.8893805,-0.02,0.089,0.995,0.61,0.183,-0.671,-39.234,-39.819,-46.839,5.448,1.133,-164.421,
358622621270,358620621270,358.62262127,358.62062127,1768044173.899981,-0.02,0.089,0.995,0.61,0.183,-0.671,-39.247,-39.819,-46.839,5.452,1.136,-164.429,
358633052308,358631052308,358.633052308,358.631052308,1768044173.9104123,-0.02,0.089,0.995,0.61,0.244,-0.671,-39.247,-39.819,-46.839,5.455,1.139,-164.436,
358643511929,358641511929,358.643511929,358.641511929,1768044173.9208105,-0.02,0.089,0.995,0.549,0.244,-0.671,-39.26,-39.832,-46.852,5.458,1.142,-164.444,
358653946174,358651946174,358.653946174,358.651946174,1768044173.9313087,-0.02,0.089,0.995,0.549,0.305,-0.671,-39.247,-39.832,-46.878,5.46,1.145,-164.451,
358664175673,358662175673,358.664175673,358.662175673,1768044173.9415383,-0.02,0.089,0.995,0.488,0.305,0.0,-39.429,-40.183,-46.93,5.463,1.149,-164.458,
358674552170,358672552170,358.67455217,358.67255217,1768044173.951912,-0.02,0.089,0.995,0.488,0.366,-0.732,-39.312,-39.962,-46.826,5.465,1.153,-164.466,
358685129330,358683129330,358.68512933,358.68312933,1768044173.9624841,-0.019,0.091,0.995,0.488,0.366,-0.732,-39.26,-39.845,-46.813,5.467,1.156,-164.474,
358695503494,358693503494,358.695503494,358.693503494,1768044173.9728627,-0.019,0.091,0.995,0.427,0.427,-0.732,-39.221,-39.845,-46.839,5.469,1.16,-164.482,
358705900699,358703900699,358.705900699,358.703900699,1768044173.9832416,-0.019,0.091,0.995,0.427,0.427,-0.732,-39.208,-39.832,-46.852,5.471,1.164,-164.489,
358716296737,358714296737,358.716296737,358.714296737,1768044173.9936535,-0.019,0.091,0.995,0.366,0.427,0.0,-39.208,-39.845,-46.852,5.473,1.169,-164.497,
358726659525,358724659525,358.726659525,358.724659525,1768044174.0039995,-0.019,0.091,0.995,0.366,0.488,-0.732,-39.208,-39.845,-46.839,5.474,1.173,-164.505,
358737077146,358735077146,358.737077146,358.735077146,1768044174.014368,-0.019,0.091,0.995,0.305,0.488,-0.732,-39.221,-39.845,-46.852,5.475,1.177,-164.513,
358747537642,358745537642,358.747537642,358.745537642,1768044174.0247662,-0.019,0.091,0.995,0.305,0.488,-0.732,-39.247,-39.858,-46.904,5.476,1.182,-164.521,
358757971888,358755971888,358.757971888,358.755971888,1768044174.0351415,-0.019,0.091,0.995,0.244,0.549,-0.732,-39.351,-40.014,-47.021,5.477,1.187,-164.529,
358768400300,358766400300,358.7684003,358.7664003,1768044174.0454001,-0.019,0.091,0.995,0.244,0.549,-0.732,-39.273,-39.884,-46.878,5.477,1.192,-164.536,
358778624549,358776624549,358.778624549,358.776624549,1768044174.0556014,-0.019,0.091,0.995,0.183,0.549,0.0,-39.247,-39.845,-46.748,5.476,1.197,-164.544,
358788957296,358786957296,358.788957296,358.786957296,1768044174.0660288,-0.019,0.091,0.995,0.183,0.61,-0.732,-39.26,-39.806,-46.761,5.476,1.202,-164.552,
358798919340,358796919340,358.79891934,358.79691934,1768044174.076056,-0.019,0.091,0.995,0.122,0.61,-0.732,-39.247,-39.832,-46.787,5.475,1.207,-164.56,
358809084089,358807084089,358.809084089,358.807084089,1768044174.0862386,-0.019,0.092,0.995,0.061,0.61,-0.732,-39.221,-39.858,-46.813,5.474,1.212,-164.568,
358819724832,358817724832,358.819724832,358.817724832,1768044174.0966344,-0.019,0.092,0.995,0.061,0.61,0.0,-39.221,-39.845,-46.774,5.473,1.218,-164.575,
358830517824,358828517824,358.830517824,358.828517824,1768044174.1071315,-0.019,0.092,0.995,0.0,0.61,-0.732,-39.221,-39.832,-46.748,5.472,1.224,-164.584,
358842528800,358840528800,358.8425288,358.8405288,1768044174.1192334,-0.019,0.092,0.995,0.0,0.61,-0.732,-39.26,-39.832,-46.839,5.471,1.23,-164.593,
358853191710,358851191710,358.85319171,358.85119171,1768044174.129893,-0.019,0.092,0.995,0.0,0.671,-0.732,-39.338,-39.962,-46.787,5.469,1.236,-164.602,
358863241252,358861241252,358.863241252,358.861241252,1768044174.140287,-0.019,0.092,0.995,0.0,0.671,-0.732,-39.286,-39.871,-46.579,5.467,1.241,-164.609,
358874059619,358872059619,358.874059619,358.872059619,1768044174.1509752,-0.019,0.092,0.995,-0.061,0.671,-0.732,-39.273,-39.845,-46.631,5.464,1.247,-164.618,
358884079995,358882079995,358.884079995,358.882079995,1768044174.1611743,-0.019,0.092,0.995,-0.061,0.671,-0.732,-39.234,-39.845,-46.67,5.462,1.253,-164.626,
358894309493,358892309493,358.894309493,358.892309493,1768044174.1713846,-0.019,0.092,0.995,-0.122,0.671,-0.732,-39.234,-39.871,-46.683,5.459,1.258,-164.633,
358904627365,358902627365,358.904627365,358.902627365,1768044174.1816156,-0.019,0.092,0.995,-0.122,0.671,-0.732,-39.234,-39.858,-46.748,5.456,1.264,-164.641,
358914914322,358912914322,358.914914322,358.912914322,1768044174.1918,-0.019,0.092,0.995,-0.183,0.671,-0.732,-39.221,-39.871,-46.8,5.453,1.269,-164.65,
358925339818,358923339818,358.925339818,358.923339818,1768044174.2022626,-0.019,0.092,0.995,-0.183,0.671,-0.732,-39.221,-39.858,-46.8,5.449,1.274,-164.657,
358935514775,358933514775,358.935514775,358.933514775,1768044174.2123969,-0.021,0.093,0.996,-0.183,0.671,-0.732,-39.195,-39.871,-46.943,5.446,1.28,-164.665,
358945611859,358943611859,358.945611859,358.943611859,1768044174.222647,-0.021,0.093,0.996,-0.244,0.61,-0.732,-39.351,-40.157,-46.904,5.442,1.286,-164.673,
358955992439,358953992439,358.955992439,358.953992439,1768044174.2330494,-0.021,0.093,0.996,-0.244,0.61,-0.732,-39.26,-39.949,-46.826,5.439,1.291,-164.681,
358966370102,358964370102,358.966370102,358.964370102,1768044174.2434127,-0.021,0.093,0.996,-0.305,0.61,-0.732,-39.208,-39.858,-46.813,5.435,1.297,-164.689,
