MonoNS,EstNS,MonoS,EstS,AccX,AccY,AccZ,GyroX,GyroY,GyroZ,YawDeg,AngX,AngY,AngZ
351045690821,351043690821,351.045690821,351.043690821,-0.021,0.091,0.996,-0.122,0.122,-0.671,,5.191,1.184,-159.196
351059712523,351057712523,351.059712523,351.057712523,-0.021,0.089,0.997,-0.061,0.122,-0.671,,5.19,1.186,-159.206
351069544484,351067544484,351.069544484,351.067544484,-0.021,0.089,0.997,-0.061,0.122,0.0,,5.188,1.187,-159.213
351083639977,351081639977,351.083639977,351.081639977,-0.021,0.089,0.997,-0.061,0.122,-0.671,,5.187,1.189,-159.221
351091353881,351089353881,351.091353881,351.089353881,-0.021,0.089,0.997,0.0,0.122,-0.671,,5.186,1.191,-159.228
351102314579,351100314579,351.102314579,351.100314579,-0.021,0.089,0.997,0.0,0.122,-0.671,,5.185,1.192,-159.235
351110152149,351108152149,351.110152149,351.108152149,-0.021,0.089,0.997,0.0,0.122,0.0,,5.184,1.194,-159.242
351120376397,351118376397,351.120376397,351.118376397,-0.021,0.089,0.997,0.0,0.122,-0.671,,5.184,1.195,-159.25
351130693395,351128693395,351.130693395,351.128693395,-0.021,0.089,0.997,0.0,0.122,-0.671,,5.183,1.197,-159.257
351140904227,351138904227,351.140904227,351.138904227,-0.021,0.089,0.997,0.0,0.122,-0.671,,5.183,1.198,-159.265
351151131684,351149131684,351.151131684,351.149131684,-0.021,0.089,0.997,0.0,0.122,-0.671,,5.183,1.199,-159.272
351161490389,351159490389,351.161490389,351.159490389,-0.021,0.089,0.997,0.061,0.061,-0.671,,5.183,1.201,-159.279
351171754887,351169754887,351.171754887,351.169754887,-0.021,0.089,0.997,0.061,0.061,-0.671,,5.184,1.202,-159.286
351181935678,351179935678,351.181935678,351.179935678,-0.021,0.089,0.997,0.061,0.061,-0.671,,5.184,1.203,-159.293
351192173051,351190173051,351.192173051,351.190173051,-0.022,0.088,0.997,0.061,0.061,-0.671,,5.185,1.204,-159.3
351202380966,351200380966,351.202380966,351.200380966,-0.022,0.088,0.997,0.122,0.061,-0.671,,5.185,1.206,-159.308
351212722464,351210722464,351.212722464,351.210722464,-0.022,0.089,0.997,0.122,0.061,-0.671,,5.186,1.207,-159.315
351222769964,351220769964,351.222769964,351.220769964,-0.022,0.088,0.997,0.122,0.061,-0.671,,5.187,1.209,-159.322
351233086378,351231086378,351.233086378,351.231086378,-0.022,0.088,0.997,0.122,0.061,-0.671,,5.187,1.21,-159.329
351243547457,351241547457,351.243547457,351.241547457,-0.022,0.088,0.997,0.183,0.061,-0.671,,5.189,1.211,-159.336
351253794747,351251794747,351.253794747,351.251794747,-0.022,0.088,0.997,0.183,0.0,-0.671,,5.19,1.212,-159.343
351266035262,351264035262,351.266035262,351.264035262,-0.022,0.088,0.997,0.183,0.0,-0.671,,5.191,1.213,-159.352
351276032305,351274032305,351.276032305,351.274032305,-0.022,0.088,0.997,0.244,0.0,-0.671,,5.193,1.214,-159.359
351286276095,351284276095,351.286276095,351.284276095,-0.022,0.088,0.997,0.244,0.0,-0.671,,5.194,1.215,-159.366
351296547885,351294547885,351.296547885,351.294547885,-0.022,0.088,0.997,0.244,0.0,-0.671,,5.196,1.215,-159.373
351306994672,351304994672,351.306994672,351.304994672,-0.022,0.088,0.997,0.244,0.0,-0.671,,5.198,1.216,-159.38
351318301574,351316301574,351.318301574,351.316301574,-0.023,0.088,0.996,0.244,0.0,-0.671,,5.2,1.216,-159.387
351327211589,351325211589,351.327211589,351.325211589,-0.023,0.088,0.996,0.244,0.0,-0.671,,5.201,1.217,-159.394
351337434671,351335434671,351.337434671,351.335434671,-0.023,0.088,0.996,0.244,0.0,-0.671,,5.203,1.218,-159.402
351347628295,351345628295,351.347628295,351.345628295,-0.023,0.088,0.996,0.244,0.0,-0.671,,5.205,1.218,-159.408
351357848752,351355848752,351.357848752,351.355848752,-0.023,0.088,0.996,0.305,-0.061,-0.671,,5.207,1.219,-159.415
351368093125,351366093125,351.368093125,351.366093125,-0.023,0.088,0.996,0.305,-0.061,-0.671,,5.209,1.219,-159.422
351378292874,351376292874,351.378292874,351.376292874,-0.023,0.088,0.996,0.305,-0.061,-0.671,,5.21,1.219,-159.429
351388357874,351386357874,351.388357874,351.386357874,-0.023,0.088,0.996,0.305,-0.061,-0.671,,5.212,1.219,-159.437
351398748663,351396748663,351.398748663,351.396748663,-0.023,0.088,0.996,0.305,-0.061,-0.671,,5.214,1.219,-159.443
351408927995,351406927995,351.408927995,351.406927995,-0.023,0.088,0.996,0.305,-0.122,-0.671,,5.216,1.218,-159.45
351419107911,351417107911,351.419107911,351.417107911,-0.023,0.088,0.996,0.305,-0.122,-0.61,,5.218,1.218,-159.457
351429224536,351427224536,351.429224536,351.427224536,-0.023,0.088,0.996,0.305,-0.122,0.0,,5.22,1.217,-159.463
351439550866,351437550866,351.439550866,351.437550866,-0.023,0.089,0.996,0.305,-0.122,-0.61,,5.222,1.217,-159.471
351449805739,351447805739,351.449805739,351.447805739,-0.023,0.089,0.996,0.305,-0.183,-0.61,,5.224,1.216,-159.477
351460223944,351458223944,351.460223944,351.458223944,-0.023,0.089,0.996,0.305,-0.183,-0.61,,5.226,1.215,-159.484
351470423693,351468423693,351.470423693,351.468423693,-0.023,0.089,0.996,0.305,-0.183,-0.61,,5.229,1.215,-159.491
351480641525,351478641525,351.480641525,351.478641525,-0.023,0.089,0.996,0.305,-0.183,-0.61,,5.231,1.214,-159.498
351490871315,351488871315,351.490871315,351.488871315,-0.023,0.089,0.996,0.244,-0.244,-0.61,,5.233,1.213,-159.505
351501062605,351499062605,351.501062605,351.499062605,-0.023,0.089,0.996,0.244,-0.244,-0.61,,5.234,1.211,-159.511
351511194105,351509194105,351.511194105,351.509194105,-0.023,0.089,0.996,0.244,-0.244,-0.61,,5.236,1.21,-159.518
351521346313,351519346313,351.521346313,351.519346313,-0.023,0.089,0.996,0.244,-0.244,-0.61,,5.238,1.209,-159.525
351531565020,351529565020,351.53156502,351.52956502,-0.023,0.089,0.996,0.244,-0.244,-0.61,,5.239,1.207,-159.531
351541775269,351539775269,351.541775269,351.539775269,-0.023,0.089,0.996,0.244,-0.244,-0.61,,5.241,1.206,-159.538
351551946726,351549946726,351.551946726,351.549946726,-0.023,0.089,0.996,0.244,-0.305,-0.61,,5.242,1.204,-159.545
351562182058,351560182058,351.562182058,351.560182058,-0.023,0.089,0.996,0.244,-0.305,0.0,,5.243,1.203,-159.551
351572596471,351570596471,351.572596471,351.570596471,-0.024,0.09,0.995,0.183,-0.305,-0.61,,5.245,1.201,-159.558
351582762387,351580762387,351.582762387,351.580762387,-0.024,0.09,0.995,0.183,-0.305,-0.61,,5.247,1.199,-159.565
351593554503,351591554503,351.593554503,351.591554503,-0.024,0.09,0.995,0.183,-0.305,-0.61,,5.248,1.197,-159.572
351603671128,351601671128,351.603671128,351.601671128,-0.024,0.09,0.995,0.183,-0.366,-0.61,,5.25,1.195,-159.578
351613220760,351611220760,351.61322076,351.61122076,-0.024,0.09,0.995,0.183,-0.366,-0.61,,5.251,1.193,-159.585
351623682422,351621682422,351.623682422,351.621682422,-0.024,0.09,0.995,0.183,-0.366,-0.61,,5.252,1.191,-159.592
351633912212,351631912212,351.633912212,351.631912212,-0.024,0.09,0.995,0.183,-0.366,-0.61,,5.253,1.189,-159.599
351644100003,351642100003,351.644100003,351.642100003,-0.024,0.09,0.995,0.122,-0.366,-0.61,,5.254,1.186,-159.605
351654332126,351652332126,351.654332126,351.652332126,-0.024,0.09,0.995,0.122,-0.366,0.0,,5.255,1.184,-159.612
351664534792,351662534792,351.664534792,351.662534792,-0.024,0.09,0.995,0.122,-0.366,-0.61,,5.256,1.182,-159.619
351674750290,351672750290,351.67475029,351.67275029,-0.024,0.09,0.995,0.122,-0.366,-0.61,,5.257,1.179,-159.625
351684968706,351682968706,351.684968706,351.682968706,-0.024,0.09,0.995,0.122,-0.366,-0.61,,5.257,1.177,-159.632
351695222121,351693222121,351.695222121,351.693222121,-0.023,0.091,0.995,0.061,-0.427,-0.61,,5.258,1.174,-159.638
351705391536,351703391536,351.705391536,351.703391536,-0.023,0.091,0.995,0.061,-0.427,-0.61,,5.259,1.172,-159.645
351715611702,351713611702,351.715611702,351.713611702,-0.023,0.091,0.995,0.061,-0.427,-0.61,,5.259,1.169,-159.652
351725829825,351723829825,351.725829825,351.723829825,-0.023,0.091,0.995,0.061,-0.427,-0.61,,5.26,1.166,-159.658
351735867993,351733867993,351.735867993,351.733867993,-0.023,0.091,0.995,0.061,-0.427,-0.61,,5.26,1.164,-159.665
351746276572,351744276572,351.746276572,351.744276572,-0.023,0.091,0.995,0.0,-0.427,-0.61,,5.261,1.161,-159.671
351756490613,351754490613,351.756490613,351.754490613,-0.023,0.091,0.995,0.0,-0.427,-0.61,,5.261,1.158,-159.678
351766866526,351764866526,351.766866526,351.764866526,-0.023,0.091,0.995,0.0,-0.427,-0.61,,5.261,1.156,-159.685
351777108566,351775108566,351.777108566,351.775108566,-0.023,0.091,0.995,0.0,-0.427,-0.61,,5.261,1.153,-159.691
351787145859,351785145859,351.787145859,351.785145859,-0.023,0.091,0.995,0.0,0.0,-0.61,,5.261,1.155,-159.698
351797344441,351795344441,351.797344441,351.795344441,-0.023,0.091,0.995,0.0,0.0,-0.61,,5.261,1.157,-159.705
351807510940,351805510940,351.80751094,351.80551094,-0.023,0.091,0.995,0.0,0.0,-0.61,,5.26,1.159,-159.712
351817786813,351815786813,351.817786813,351.815786813,-0.022,0.092,0.995,0.0,0.0,-0.61,,5.26,1.16,-159.718
351827980437,351825980437,351.827980437,351.825980437,-0.022,0.092,0.995,0.0,0.0,-0.61,,5.26,1.162,-159.725
351838223352,351836223352,351.838223352,351.836223352,-0.022,0.092,0.995,0.0,0.0,-0.61,,5.26,1.163,-159.731
351848419601,351846419601,351.848419601,351.846419601,-0.022,0.092,0.995,0.0,0.0,-0.61,,5.261,1.164,-159.738
351858639766,351856639766,351.858639766,351.856639766,-0.022,0.092,0.995,0.0,0.0,-0.61,,5.261,1.166,-159.745
351875100062,351873100062,351.875100062,351.873100062,-0.022,0.092,0.995,0.0,0.0,-0.61,,5.261,1.167,-159.751
351882793259,351880793259,351.882793259,351.880793259,-0.022,0.092,0.995,0.0,0.0,-0.61,,5.261,1.168,-159.758
351891296695,351889296695,351.891296695,351.889296695,-0.022,0.092,0.995,0.0,0.0,-0.61,,5.261,1.17,-159.765
351902216269,351900216269,351.902216269,351.900216269,-0.022,0.092,0.995,0.0,0.0,-0.61,,5.262,1.171,-159.773
351912436434,351910436434,351.912436434,351.910436434,-0.022,0.092,0.995,0.0,0.0,-0.61,,5.262,1.172,-159.779
351922551892,351920551892,351.922551892,351.920551892,-0.022,0.092,0.995,0.0,0.0,-0.61,,5.262,1.174,-159.787
351932881431,351930881431,351.932881431,351.930881431,-0.022,0.092,0.995,0.0,0.0,-0.61,,5.262,1.175,-159.793
351943089930,351941089930,351.94308993,351.94108993,-0.022,0.092,0.995,0.0,0.0,-0.61,,5.262,1.176,-159.8
351953178847,351951178847,351.953178847,351.951178847,-0.021,0.092,0.995,0.0,0.0,-0.61,,5.262,1.177,-159.806
351963533469,351961533469,351.963533469,351.961533469,-0.021,0.092,0.995,0.0,0.0,-0.61,,5.263,1.177,-159.814
351973580094,351971580094,351.973580094,351.971580094,-0.021,0.092,0.995,0.0,0.0,-0.61,,5.263,1.178,-159.82
351983849842,351981849842,351.983849842,351.981849842,-0.021,0.092,0.995,0.0,0.0,-0.61,,5.263,1.179,-159.827
351994511002,351992511002,351.994511002,351.992511002,-0.021,0.092,0.995,0.0,0.0,-0.61,,5.263,1.179,-159.834
352004475962,352002475962,352.004475962,352.002475962,-0.021,0.092,0.995,0.0,0.0,-0.61,,5.264,1.18,-159.841
352014537088,352012537088,352.014537088,352.012537088,-0.021,0.092,0.995,0.0,0.0,-0.61,,5.264,1.18,-159.848
352024562589,352022562589,352.024562589,352.022562589,-0.021,0.092,0.995,0.0,0.0,-0.671,,5.264,1.181,-159.854
352034774296,352032774296,352.034774296,352.032774296,-0.021,0.092,0.995,0.0,0.0,-0.671,,5.264,1.182,-159.861
352044821505,352042821505,352.044821505,352.042821505,-0.021,0.092,0.995,0.0,0.0,-0.671,,5.264,1.182,-159.868
352054872505,352052872505,352.054872505,352.052872505,-0.021,0.092,0.995,0.0,0.0,-0.671,,5.265,1.183,-159.875
352065195336,352063195336,352.065195336,352.063195336,-0.021,0.092,0.995,0.0,0.0,-0.671,,5.265,1.183,-159.882
352075220670,352073220670,352.07522067,352.07322067,-0.021,0.091,0.995,0.0,0.0,-0.671,-0.0006785038232803394,5.265,1.184,-159.888
352085199922,352083199922,352.085199922,352.083199922,-0.021,0.091,0.995,0.0,0.0,0.0,0.0004903224589886501,5.265,1.184,-159.895
352095257048,352093257048,352.095257048,352.093257048,-0.021,0.091,0.995,0.0,0.0,-0.671,0.00115247168144087,5.265,1.184,-159.903
352105457671,352103457671,352.105457671,352.103457671,-0.021,0.091,0.995,0.0,0.0,-0.671,0.001445652015984148,5.265,1.184,-159.909
352115518589,352113518589,352.115518589,352.113518589,-0.021,0.091,0.995,0.0,0.0,-0.671,0.0014679768298116727,5.264,1.185,-159.916
352125546548,352123546548,352.125546548,352.123546548,-0.021,0.091,0.995,0.0,0.0,-0.671,0.0012977763503118993,5.264,1.185,-159.923
352135770213,352133770213,352.135770213,352.133770213,-0.021,0.091,0.995,0.0,0.0,-0.671,0.0009799895437311301,5.264,1.185,-159.93
352145834630,352143834630,352.14583463,352.14383463,-0.021,0.091,0.995,0.0,0.0,-0.671,0.000566622574704976,5.264,1.185,-159.937
352155884464,352153884464,352.155884464,352.153884464,-0.021,0.091,0.995,0.0,0.0,-0.671,8.013523827670852e-05,5.264,1.185,-159.944
352165912132,352163912132,352.165912132,352.163912132,-0.021,0.091,0.995,0.0,0.0,-0.671,-0.00045963534660148434,5.264,1.186,-159.951
352176122381,352174122381,352.176122381,352.174122381,-0.021,0.091,0.995,0.0,0.0,-0.671,-0.0010469104108319183,5.264,1.186,-159.958
352186171340,352184171340,352.18617134,352.18417134,-0.021,0.091,0.995,0.0,0.0,0.0,0.00020567272626094473,5.264,1.186,-159.965
352196255007,352194255007,352.196255007,352.194255007,-0.021,0.091,0.995,0.0,0.0,-0.671,0.0009246253351397736,5.264,1.186,-159.973
352206425589,352204425589,352.206425589,352.204425589,-0.021,0.09,0.995,0.0,0.0,-0.671,0.0012601755191892924,5.263,1.186,-159.98
352216579255,352214579255,352.216579255,352.214579255,-0.021,0.09,0.995,0.0,0.0,-0.671,0.001312337214668845,5.263,1.186,-159.987
352226535466,352224535466,352.226535466,352.224535466,-0.021,0.09,0.995,0.0,0.0,-0.671,0.0011636044043004039,5.262,1.187,-159.994
352236752131,352234752131,352.236752131,352.234752131,-0.021,0.09,0.995,0.0,0.0,-0.671,0.0008619077123478832,5.261,1.187,-160.001
352246856798,352244856798,352.246856798,352.244856798,-0.021,0.09,0.995,0.0,0.0,-0.671,0.0004598116520463855,5.261,1.187,-160.008
352256831674,352254831674,352.256831674,352.254831674,-0.021,0.09,0.995,0.0,0.0,-0.671,-1.7961688017558476e-05,5.26,1.187,-160.015
352267049506,352265049506,352.267049506,352.265049506,-0.021,0.09,0.995,0.0,0.0,-0.671,-0.0005616388747437697,5.26,1.187,-160.022
352277133173,352275133173,352.277133173,352.275133173,-0.021,0.09,0.995,0.0,0.0,-0.671,-0.00113841904013129,5.259,1.187,-160.03
352287126424,352285126424,352.287126424,352.285126424,-0.021,0.09,0.995,0.0,0.0,0.0,9.80377136030219e-05,5.258,1.187,-160.037
352297348923,352295348923,352.297348923,352.295348923,-0.021,0.09,0.995,0.0,0.0,-0.671,0.000817644939144708,5.258,1.187,-160.044
352307414507,352305414507,352.307414507,352.305414507,-0.021,0.09,0.995,0.0,0.0,-0.671,0.0011439649978612443,5.257,1.187,-160.051
352317448008,352315448008,352.317448008,352.315448008,-0.021,0.09,0.995,0.0,0.0,-0.671,0.0011937086174996139,5.257,1.187,-160.059
352327509800,352325509800,352.3275098,352.3255098,-0.021,0.089,0.995,0.0,0.0,-0.671,0.0010424054053863791,5.256,1.187,-160.066
352337712465,352335712465,352.337712465,352.335712465,-0.021,0.089,0.995,0.0,0.0,-0.671,0.0007399936961690721,5.255,1.187,-160.073
352347774841,352345774841,352.347774841,352.345774841,-0.021,0.089,0.995,0.0,0.0,-0.671,0.0003365280310388455,5.254,1.188,-160.08
352357984215,352355984215,352.357984215,352.355984215,-0.021,0.089,0.995,0.0,0.0,-0.671,-0.00015161859898368154,5.253,1.188,-160.087
352368013632,352366013632,352.368013632,352.366013632,-0.021,0.089,0.995,0.0,0.0,-0.671,-0.0006859399923709144,5.252,1.188,-160.094
352378064633,352376064633,352.378064633,352.376064633,-0.021,0.089,0.995,0.0,0.0,-0.671,-0.0012609011098690841,5.251,1.188,-160.101
352388269048,352386269048,352.388269048,352.386269048,-0.021,0.089,0.995,0.0,0.0,-0.671,-0.001875104410625196,5.25,1.188,-160.109
352398318299,352396318299,352.398318299,352.396318299,-0.021,0.089,0.995,0.0,0.0,-0.671,-0.0025002925460349103,5.249,1.188,-160.116
352408382133,352406382133,352.408382133,352.406382133,-0.021,0.089,0.995,0.0,0.0,-0.671,-0.003141375557098523,5.248,1.189,-160.123
352418575757,352416575757,352.418575757,352.416575757,-0.021,0.089,0.995,0.0,0.0,-0.671,-0.0038025729548271017,5.247,1.189,-160.131
352428655924,352426655924,352.428655924,352.426655924,-0.021,0.089,0.995,0.0,0.0,-0.671,-0.00446311966957612,5.246,1.189,-160.138
352438676008,352436676008,352.438676008,352.436676008,-0.021,0.089,0.995,0.0,0.0,-0.671,-0.0051271334525798,5.245,1.189,-160.145
352448720009,352446720009,352.448720009,352.446720009,-0.021,0.089,0.995,0.0,0.0,-0.671,-0.005796234502236525,5.244,1.189,-160.152
352458947466,352456947466,352.458947466,352.456947466,-0.021,0.089,0.995,0.0,0.0,-0.671,-0.006480542441823134,5.243,1.19,-160.159
352468992633,352466992633,352.468992633,352.466992633,-0.021,0.089,0.995,0.0,0.0,-0.671,-0.007155454519953585,5.242,1.19,-160.166
352479058217,352477058217,352.479058217,352.477058217,-0.021,0.089,0.995,0.0,0.0,-0.671,-0.007830875887030665,5.241,1.19,-160.174
352489258841,352487258841,352.489258841,352.487258841,-0.021,0.089,0.995,0.0,0.0,0.0,-0.00661074276932492,5.24,1.191,-160.181
352499295258,352497295258,352.499295258,352.497295258,-0.021,0.089,0.995,0.0,0.0,-0.671,-0.005928616676541039,5.239,1.191,-160.189
352509293176,352507293176,352.509293176,352.507293176,-0.021,0.089,0.995,0.0,0.0,-0.671,-0.005620354111972508,5.237,1.192,-160.196
352519565841,352517565841,352.519565841,352.517565841,-0.021,0.089,0.995,0.0,0.0,-0.671,-0.0055862075867121885,5.236,1.192,-160.203
352529686841,352527686841,352.529686841,352.527686841,-0.021,0.089,0.995,0.0,0.0,-0.671,-0.0057491029062884304,5.235,1.193,-160.211
352539659093,352537659093,352.539659093,352.537659093,-0.021,0.089,0.995,0.0,0.0,-0.671,-0.006053775701187819,5.234,1.193,-160.218
352549703093,352547703093,352.549703093,352.547703093,-0.021,0.089,0.995,0.0,0.0,-0.671,-0.006461555952748046,5.233,1.194,-160.225
352559925300,352557925300,352.5599253,352.5579253,-0.021,0.089,0.995,0.0,0.0,-0.671,-0.0069539114190573246,5.232,1.194,-160.232
352569979509,352567979509,352.569979509,352.567979509,-0.021,0.089,0.995,0.0,0.0,-0.671,-0.007491666516724499,5.231,1.194,-160.239
352580062593,352578062593,352.580062593,352.578062593,-0.021,0.089,0.995,0.0,0.0,-0.671,-0.008068541837281016,5.23,1.195,-160.246
352590142176,352588142176,352.590142176,352.588142176,-0.022,0.089,0.996,0.0,0.0,-0.671,-0.008677591678033026,5.228,1.195,-160.254
352600288259,352598288259,352.600288259,352.598288259,-0.022,0.089,0.996,0.0,0.0,-0.671,-0.009310448473790882,5.227,1.196,-160.262
352610343052,352608343052,352.610343052,352.608343052,-0.022,0.089,0.996,0.0,0.0,-0.671,-0.009951353480897759,5.226,1.197,-160.269
352620541050,352618541050,352.62054105,352.61854105,-0.022,0.089,0.996,0.0,0.0,-0.671,-0.010614032823074313,5.225,1.198,-160.276
352630601968,352628601968,352.630601968,352.628601968,-0.022,0.089,0.996,0.0,0.0,-0.671,-0.01127366989878916,5.224,1.198,-160.283
352640597261,352638597261,352.640597261,352.638597261,-0.022,0.089,0.996,0.0,0.0,-0.671,-0.011936270260410223,5.223,1.199,-160.29
352650684428,352648684428,352.650684428,352.648684428,-0.022,0.089,0.996,0.0,0.0,-0.671,-0.012608400676761831,5.222,1.2,-160.297
352660934926,352658934926,352.660934926,352.658934926,-0.022,0.089,0.996,0.0,0.0,-0.671,-0.013292200322964645,5.221,1.201,-160.304
352670976593,352668976593,352.670976593,352.668976593,-0.022,0.089,0.996,0.0,0.0,-0.671,-0.013966574639148827,5.22,1.201,-160.311
352681006594,352679006594,352.681006594,352.679006594,-0.022,0.089,0.996,0.0,0.0,-0.671,-0.014643082891587243,5.219,1.202,-160.318
352691210135,352689210135,352.691210135,352.689210135,-0.022,0.089,0.996,0.0,0.0,0.0,-0.013426031951677611,5.218,1.203,-160.326
352701299635,352699299635,352.701299635,352.699299635,-0.022,0.089,0.996,0.0,0.0,-0.671,-0.012744665688643547,5.217,1.203,-160.333
352711317094,352709317094,352.711317094,352.709317094,-0.022,0.089,0.996,0.0,0.0,-0.671,-0.012437494864698988,5.216,1.204,-160.34
352721513343,352719513343,352.721513343,352.719513343,-0.022,0.089,0.996,0.0,0.0,-0.671,-0.01240398533787771,5.215,1.205,-160.347
352731627926,352729627926,352.731627926,352.729627926,-0.022,0.089,0.996,0.0,0.0,-0.671,-0.012567350014253879,5.214,1.206,-160.354
352741658219,352739658219,352.741658219,352.739658219,-0.022,0.089,0.996,0.0,0.0,-0.671,-0.012872930846384082,5.214,1.207,-160.361
352751831135,352749831135,352.751831135,352.749831135,-0.022,0.089,0.996,0.0,0.0,-0.671,-0.013288375894269813,5.213,1.208,-160.368
352761870761,352759870761,352.761870761,352.759870761,-0.022,0.089,0.996,0.0,0.0,-0.671,-0.013772427814382628,5.212,1.209,-160.376
352771903970,352769903970,352.77190397,352.76990397,-0.022,0.089,0.996,0.0,0.0,-0.671,-0.014309907227291033,5.211,1.21,-160.383
352781950012,352779950012,352.781950012,352.779950012,-0.022,0.089,0.996,0.0,0.0,-0.671,-0.014886636514716887,5.211,1.21,-160.39
352792176594,352790176594,352.792176594,352.790176594,-0.022,0.089,0.996,0.0,0.0,-0.671,-0.015502902521663904,5.21,1.211,-160.397
352802220595,352800220595,352.802220595,352.800220595,-0.022,0.089,0.996,0.0,0.0,0.0,-0.014278919550383237,5.209,1.212,-160.404
352812274221,352810274221,352.812274221,352.810274221,-0.022,0.089,0.996,0.0,0.0,-0.671,-0.013577235817768709,5.209,1.213,-160.412
352822510719,352820510719,352.822510719,352.820510719,-0.022,0.089,0.996,0.0,0.0,-0.671,-0.013254674914588406,5.208,1.214,-160.419
352832534303,352830534303,352.832534303,352.830534303,-0.022,0.089,0.996,0.0,0.0,-0.671,-0.013211585923655933,5.207,1.215,-160.426
352842622929,352840622929,352.842622929,352.840622929,-0.023,0.09,0.996,0.0,0.0,-0.671,-0.01336763272572686,5.207,1.216,-160.433
352852650596,352850650596,352.852650596,352.850650596,-0.023,0.09,0.996,0.0,0.0,-0.671,-0.013667367525449836,5.206,1.217,-160.44
352862877470,352860877470,352.86287747,352.86087747,-0.023,0.09,0.996,0.0,0.0,-0.671,-0.014079625486977094,5.206,1.218,-160.447
352872890263,352870890263,352.872890263,352.870890263,-0.023,0.09,0.996,0.0,0.0,-0.671,-0.014560801526990937,5.206,1.219,-160.454
352883119761,352881119761,352.883119761,352.881119761,-0.023,0.09,0.996,0.0,0.0,-0.671,-0.015107156843094677,5.205,1.22,-160.46
352893143345,352891143345,352.893143345,352.891143345,-0.023,0.09,0.996,0.0,0.0,-0.671,-0.0156817442739164,5.205,1.221,-160.467
352903187929,352901187929,352.903187929,352.901187929,-0.023,0.09,0.996,0.0,0.0,0.0,-0.014433524815375208,5.204,1.222,-160.474
352913266346,352911266346,352.913266346,352.911266346,-0.023,0.09,0.996,0.0,0.0,-0.671,-0.013715117342335121,5.204,1.222,-160.482
352923482137,352921482137,352.923482137,352.921482137,-0.023,0.09,0.996,0.0,0.0,-0.671,-0.013380494739496216,5.204,1.223,-160.489
352933513304,352931513304,352.933513304,352.931513304,-0.023,0.09,0.996,0.0,0.0,-0.671,-0.01332846816976792,5.203,1.224,-160.496
352943515597,352941515597,352.943515597,352.941515597,-0.023,0.09,0.996,0.0,0.0,-0.671,-0.013476377388221125,5.203,1.225,-160.503
352953614431,352951614431,352.953614431,352.951614431,-0.023,0.09,0.996,0.0,0.0,-0.671,-0.013772403003961117,5.203,1.226,-160.509
352963807180,352961807180,352.96380718,352.96180718,-0.023,0.09,0.996,0.0,0.0,-0.671,-0.014181385795582856,5.202,1.227,-160.516
352973865180,352971865180,352.97386518,352.97186518,-0.023,0.09,0.996,0.0,0.0,-0.671,-0.014660212088145138,5.202,1.228,-160.523
352983903931,352981903931,352.983903931,352.981903931,-0.023,0.09,0.996,0.0,0.0,-0.671,-0.01519395881905087,5.202,1.229,-160.53
352994133721,352992133721,352.994133721,352.992133721,-0.023,0.09,0.996,0.0,0.0,-0.671,-0.015778516272750717,5.202,1.23,-160.537
353004190847,353002190847,353.004190847,353.002190847,-0.023,0.09,0.996,0.0,0.0,-0.671,-0.016383123065037225,5.202,1.231,-160.544
353014297264,353012297264,353.014297264,353.012297264,-0.023,0.09,0.996,0.0,0.0,0.0,-0.015161286464088392,5.202,1.232,-160.55
353024251140,353022251140,353.02425114,353.02225114,-0.023,0.09,0.996,0.0,0.0,-0.61,-0.014294553902365566,5.202,1.232,-160.558
353034488514,353032488514,353.034488514,353.032488514,-0.023,0.09,0.996,0.0,0.0,-0.61,-0.01367183341988351,5.202,1.233,-160.565
353044560223,353042560223,353.044560223,353.042560223,-0.023,0.09,0.996,0.0,0.0,-0.61,-0.013249596123952923,5.202,1.234,-160.571
353054733722,353052733722,353.054733722,353.052733722,-0.023,0.09,0.996,0.0,0.0,-0.61,-0.012957711324396819,5.202,1.235,-160.578
353064857055,353062857055,353.064857055,353.062857055,-0.023,0.09,0.996,0.0,0.0,-0.61,-0.012768291053238881,5.202,1.236,-160.585
353074826682,353072826682,353.074826682,353.072826682,-0.023,0.09,0.996,0.0,0.0,-0.61,-0.012649304589075422,5.202,1.237,-160.591
353084884974,353082884974,353.084884974,353.082884974,-0.023,0.09,0.996,0.0,0.0,-0.61,-0.012581571827277364,5.202,1.238,-160.598
353095121180,353093121180,353.09512118,353.09312118,-0.023,0.091,0.996,0.0,0.0,-0.61,-0.012550900107954907,5.202,1.238,-160.605
353105133098,353103133098,353.105133098,353.103133098,-0.023,0.091,0.996,0.0,0.0,-0.61,-0.01254754957502801,5.202,1.239,-160.611
353115184391,353113184391,353.115184391,353.113184391,-0.023,0.091,0.996,0.0,0.0,0.0,-0.010881113094117536,5.202,1.24,-160.618
353125395806,353123395806,353.125395806,353.123395806,-0.023,0.091,0.996,0.0,0.0,-0.61,-0.009676439440588163,5.202,1.241,-160.625
353135439223,353133439223,353.135439223,353.133439223,-0.023,0.091,0.996,0.0,0.0,-0.61,-0.00883583061352588,5.202,1.241,-160.632
353145495182,353143495182,353.145495182,353.143495182,-0.023,0.091,0.996,0.0,0.0,-0.61,-0.008243835910020038,5.203,1.242,-160.638
353155603057,353153603057,353.155603057,353.153603057,-0.023,0.091,0.996,0.0,0.0,-0.61,-0.007833934189883093,5.203,1.243,-160.645
353165746224,353163746224,353.165746224,353.163746224,-0.023,0.091,0.996,0.0,0.0,-0.61,-0.007551757129882145,5.203,1.244,-160.651
353175783808,353173783808,353.175783808,353.173783808,-0.023,0.091,0.996,0.0,0.0,-0.61,-0.007369136065169648,5.203,1.244,-160.658
353185840933,353183840933,353.185840933,353.183840933,-0.023,0.091,0.996,0.0,0.0,-0.61,-0.007255044007380815,5.203,1.245,-160.665
353196050890,353194050890,353.19605089,353.19405089,-0.023,0.091,0.996,0.0,0.0,-0.61,-0.007190355179592915,5.204,1.246,-160.671
353206155265,353204155265,353.206155265,353.204155265,-0.023,0.091,0.996,0.0,0.0,-0.61,-0.007162729372229182,5.204,1.246,-160.678
353216163100,353214163100,353.2161631,353.2141631,-0.023,0.091,0.996,0.0,0.0,0.0,-0.005484843945587024,5.204,1.247,-160.685
353226376557,353224376557,353.226376557,353.224376557,-0.023,0.091,0.996,0.0,0.0,-0.61,-0.0042673116021929485,5.204,1.248,-160.692
353236407433,353234407433,353.236407433,353.234407433,-0.023,0.091,0.996,0.0,0.0,-0.61,-0.0034204839864266827,5.204,1.248,-160.698
353246454059,353244454059,353.246454059,353.244454059,-0.023,0.091,0.996,0.0,0.0,-0.61,-0.0028253369311269714,5.205,1.249,-160.705
353256453727,353254453727,353.256453727,353.254453727,-0.023,0.091,0.996,0.0,0.0,-0.61,-0.0024102414756619344,5.205,1.25,-160.711
353266743016,353264743016,353.266743016,353.264743016,-0.023,0.091,0.996,0.0,0.0,-0.61,-0.002123567748123987,5.205,1.25,-160.718
353276776809,353274776809,353.276776809,353.274776809,-0.023,0.091,0.996,0.0,0.0,-0.61,-0.0019387117344732271,5.206,1.251,-160.724
353287008057,353285008057,353.287008057,353.285008057,-0.023,0.091,0.996,0.0,0.0,-0.61,-0.0018220954364208254,5.206,1.251,-160.731
353297080349,353295080349,353.297080349,353.295080349,-0.023,0.091,0.996,0.0,0.0,-0.61,-0.0017574352208305068,5.206,1.252,-160.737
353307245390,353305245390,353.30724539,353.30524539,-0.023,0.091,0.996,0.0,0.0,-0.61,-0.00172898541933305,5.206,1.252,-160.744
353317295516,353315295516,353.317295516,353.315295516,-0.023,0.091,0.996,0.0,0.0,0.0,-4.160112998924091e-05,5.207,1.253,-160.75
353327336308,353325336308,353.327336308,353.325336308,-0.023,0.091,0.996,0.0,0.0,-0.61,0.0011621475146517434,5.207,1.253,-160.757
353337387309,353335387309,353.337387309,353.335387309,-0.023,0.091,0.996,0.0,0.0,-0.61,0.0020178964274487556,5.207,1.254,-160.764
353347664057,353345664057,353.347664057,353.345664057,-0.022,0.091,0.996,0.0,0.0,-0.61,0.0026263282549955926,5.208,1.254,-160.77
353357688808,353355688808,353.357688808,353.355688808,-0.022,0.091,0.996,0.0,0.0,-0.61,0.003042085702459919,5.208,1.255,-160.777
353367686434,353365686434,353.367686434,353.365686434,-0.022,0.091,0.996,0.0,0.0,-0.61,0.003325002472952909,5.208,1.255,-160.784
353377922933,353375922933,353.377922933,353.375922933,-0.022,0.091,0.996,0.0,0.0,-0.61,0.003513555799490092,5.208,1.256,-160.79
353387975392,353385975392,353.387975392,353.385975392,-0.022,0.091,0.996,0.0,0.0,-0.61,0.0036296953742018735,5.209,1.256,-160.797
353398015892,353396015892,353.398015892,353.396015892,-0.022,0.091,0.996,0.0,0.0,-0.61,0.0036954134601054852,5.209,1.256,-160.803
353408198141,353406198141,353.408198141,353.406198141,-0.022,0.091,0.996,0.0,0.0,-0.61,0.0037245779296997666,5.209,1.257,-160.81
353418282100,353416282100,353.4182821,353.4162821,-0.022,0.091,0.996,0.0,0.0,-0.61,0.0037268590587885165,5.21,1.257,-160.816
353428315601,353426315601,353.428315601,353.426315601,-0.022,0.091,0.996,0.0,0.0,-0.61,0.0037100082244256784,5.21,1.258,-160.824
353438512725,353436512725,353.438512725,353.436512725,-0.022,0.091,0.996,0.0,0.0,-0.61,0.0036785738104253007,5.21,1.258,-160.83
353448560226,353446560226,353.448560226,353.446560226,-0.022,0.091,0.996,0.0,0.0,-0.61,0.003637638156522217,5.21,1.258,-160.837
353458642143,353456642143,353.458642143,353.456642143,-0.022,0.091,0.996,0.0,0.0,-0.61,0.0035895230647765937,5.211,1.259,-160.844
353468848891,353466848891,353.468848891,353.466848891,-0.022,0.091,0.996,0.0,0.0,-0.671,0.0033621529698761817,5.211,1.259,-160.851
353479147806,353477147806,353.479147806,353.477147806,-0.022,0.091,0.996,0.0,0.0,-0.671,0.0030080993883851073,5.211,1.259,-160.857
353490276793,353488276793,353.490276793,353.488276793,-0.022,0.091,0.996,0.0,0.0,-0.671,0.0025120535350127205,5.212,1.26,-160.865
353500858329,353498858329,353.500858329,353.498858329,-0.022,0.091,0.996,0.0,0.0,-0.671,0.0019806912290490364,5.212,1.26,-160.872
353511094244,353509094244,353.511094244,353.509094244,-0.022,0.091,0.996,0.0,0.0,-0.671,0.0014020783927387594,5.212,1.26,-160.879
353521377117,353519377117,353.521377117,353.519377117,-0.022,0.091,0.996,0.0,0.0,0.0,0.0027189462828264717,5.212,1.26,-160.885
353531734947,353529734947,353.531734947,353.529734947,-0.022,0.091,0.996,0.0,0.0,-0.671,0.003477555848343594,5.212,1.261,-160.893
353542366940,353540366940,353.54236694,353.54036694,-0.022,0.091,0.996,0.0,0.0,-0.671,0.003826215859965079,5.213,1.261,-160.9
353552635813,353550635813,353.552635813,353.550635813,-0.022,0.091,0.996,0.0,0.0,-0.671,0.003872850227234471,5.213,1.261,-160.907
353562601148,353560601148,353.562601148,353.560601148,-0.022,0.091,0.996,0.0,0.0,-0.671,0.0037192564615339562,5.213,1.261,-160.914
353572697648,353570697648,353.572697648,353.570697648,-0.022,0.091,0.996,0.0,0.0,-0.671,0.0034187759856730373,5.213,1.261,-160.921
353582889814,353580889814,353.582889814,353.580889814,-0.022,0.091,0.996,0.0,0.0,-0.671,0.003006930848753433,5.214,1.262,-160.927
353592942856,353590942856,353.592942856,353.590942856,-0.022,0.091,0.996,0.0,0.0,-0.671,0.0025267973769909626,5.214,1.262,-160.934
353602992107,353600992107,353.602992107,353.600992107,-0.022,0.091,0.996,0.0,0.0,-0.671,0.001990989870943578,5.214,1.262,-160.941
353613210522,353611210522,353.613210522,353.611210522,-0.022,0.091,0.996,0.0,0.0,-0.671,0.001404784578248084,5.214,1.262,-160.948
353623259190,353621259190,353.62325919,353.62125919,-0.022,0.091,0.996,0.0,0.0,0.0,0.002650976396855617,5.214,1.262,-160.955
353633304940,353631304940,353.63330494,353.63130494,-0.022,0.091,0.996,0.0,0.0,-0.671,0.003368411106619206,5.214,1.262,-160.962
353643433524,353641433524,353.643433524,353.641433524,-0.022,0.091,0.996,0.0,0.0,-0.671,0.003702137070916388,5.214,1.262,-160.969
353653632106,353651632106,353.653632106,353.651632106,-0.022,0.091,0.996,0.0,0.0,-0.671,0.0037533701939214937,5.214,1.262,-160.976
353663679898,353661679898,353.663679898,353.661679898,-0.022,0.091,0.996,0.0,0.0,-0.671,0.0036046692943247504,5.214,1.262,-160.983
353673950229,353671950229,353.673950229,353.671950229,-0.022,0.091,0.996,0.0,0.0,-0.671,0.0033008200325731576,5.215,1.262,-160.99
353683923939,353681923939,353.683923939,353.681923939,-0.022,0.091,0.996,0.0,0.0,-0.671,0.0028982328789942356,5.215,1.262,-160.997
353693989232,353691989232,353.693989232,353.691989232,-0.022,0.091,0.996,0.0,0.0,-0.671,0.002418454304015774,5.215,1.262,-161.003
353704017191,353702017191,353.704017191,353.702017191,-0.022,0.091,0.996,0.0,0.0,-0.671,0.0018846034131879464,5.215,1.262,-161.01
353714319313,353712319313,353.714319313,353.712319313,-0.022,0.091,0.996,0.0,0.0,-0.671,0.0012995816975110847,5.215,1.262,-161.017
353724289232,353722289232,353.724289232,353.722289232,-0.021,0.09,0.995,0.0,0.0,0.0,0.002547702748589824,5.215,1.262,-161.025
353734337024,353732337024,353.734337024,353.732337024,-0.021,0.09,0.995,0.0,0.0,-0.671,0.0032659988588025156,5.215,1.262,-161.032
353744389775,353742389775,353.744389775,353.742389775,-0.021,0.09,0.995,0.0,0.0,-0.671,0.0035999838705515065,5.215,1.262,-161.039
353754673231,353752673231,353.754673231,353.752673231,-0.021,0.09,0.995,0.0,0.0,-0.671,0.003652833119559991,5.215,1.262,-161.046
353764657149,353762657149,353.764657149,353.762657149,-0.021,0.09,0.995,0.0,0.0,-0.671,0.0035037905114133233,5.215,1.261,-161.053
353774777566,353772777566,353.774777566,353.772777566,-0.021,0.09,0.995,0.0,0.0,-0.671,0.0032088081299232103,5.215,1.261,-161.06
353784788025,353782788025,353.784788025,353.782788025,-0.021,0.09,0.995,0.0,0.0,-0.671,0.002807931795301082,5.215,1.261,-161.067
353794964733,353792964733,353.794964733,353.792964733,-0.021,0.09,0.995,0.0,0.0,-0.671,0.0023212767677317004,5.215,1.261,-161.074
353805088649,353803088649,353.805088649,353.803088649,-0.021,0.09,0.995,0.0,0.0,-0.671,0.0017867696170623176,5.215,1.261,-161.081
353815186024,353813186024,353.815186024,353.813186024,-0.021,0.09,0.995,0.0,0.0,-0.671,0.0012096307849237891,5.215,1.26,-161.088
353825277566,353823277566,353.825277566,353.823277566,-0.021,0.09,0.995,0.0,0.0,0.0,0.0024890355018182177,5.215,1.26,-161.095
353835336150,353833336150,353.83533615,353.83333615,-0.021,0.09,0.995,0.0,0.0,-0.671,0.0032195398617746573,5.214,1.26,-161.103
353845385401,353843385401,353.845385401,353.843385401,-0.021,0.09,0.995,0.0,0.0,-0.671,0.003561832274613859,5.214,1.26,-161.11
353855597399,353853597399,353.855597399,353.853597399,-0.021,0.09,0.995,0.0,0.0,-0.671,0.003620808385973972,5.214,1.26,-161.117
353865647817,353863647817,353.865647817,353.863647817,-0.021,0.09,0.995,0.0,0.0,-0.671,0.0034762728159925256,5.214,1.259,-161.124
353875869149,353873869149,353.875869149,353.873869149,-0.021,0.09,0.995,0.0,0.0,-0.671,0.0031771809521805422,5.214,1.259,-161.131
353885915483,353883915483,353.885915483,353.883915483,-0.021,0.09,0.995,0.0,0.0,-0.671,0.0027774313473898546,5.214,1.259,-161.138
353895958900,353893958900,353.8959589,353.8939589,-0.021,0.09,0.995,0.0,0.0,-0.671,0.0023005700590252613,5.214,1.258,-161.145
353906014567,353904014567,353.906014567,353.904014567,-0.021,0.09,0.995,0.0,0.0,-0.671,0.0017678000151227528,5.213,1.258,-161.152
353916274107,353914274107,353.916274107,353.914274107,-0.021,0.09,0.995,0.0,0.0,-0.671,0.001183077587062738,5.213,1.258,-161.159
353926273192,353924273192,353.926273192,353.924273192,-0.021,0.09,0.995,0.0,0.0,0.0,0.0024279312972406136,5.213,1.257,-161.166
353936321276,353934321276,353.936321276,353.934321276,-0.021,0.09,0.995,0.0,0.0,-0.671,0.003145313678138074,5.213,1.257,-161.173
353946372277,353944372277,353.946372277,353.944372277,-0.021,0.09,0.995,0.0,0.0,-0.671,0.0034788165823084216,5.213,1.257,-161.18
353956613442,353954613442,353.956613442,353.954613442,-0.021,0.09,0.995,0.0,0.0,-0.671,0.003530944461683583,5.213,1.256,-161.187
353966625943,353964625943,353.966625943,353.964625943,-0.021,0.09,0.995,0.0,0.0,-0.671,0.003381851092834401,5.212,1.256,-161.194
353976723901,353974723901,353.976723901,353.974723901,-0.021,0.09,0.995,0.0,0.0,-0.671,0.003086200250409642,5.212,1.256,-161.202
353986713069,353984713069,353.986713069,353.984713069,-0.021,0.09,0.995,0.0,0.0,-0.671,0.0026860934798333264,5.212,1.255,-161.209
353996928276,353994928276,353.996928276,353.994928276,-0.021,0.09,0.995,0.0,0.0,-0.671,0.002200354211456842,5.212,1.255,-161.216
354006974027,354004974027,354.006974027,354.004974027,-0.021,0.09,0.995,0.0,0.0,-0.671,0.0016660835721230601,5.211,1.255,-161.223
354017080152,354015080152,354.017080152,354.015080152,-0.021,0.09,0.995,0.0,0.0,-0.671,0.0010876986748690406,5.211,1.255,-161.23
354027263859,354025263859,354.027263859,354.025263859,-0.021,0.09,0.995,0.0,0.0,0.0,0.0023615547062332,5.21,1.254,-161.237
354037273736,354035273736,354.037273736,354.035273736,-0.021,0.09,0.995,0.0,0.0,-0.671,0.0030895503192971546,5.21,1.254,-161.245
354047329694,354045329694,354.047329694,354.045329694,-0.021,0.09,0.995,0.0,0.0,-0.671,0.0034308363566893127,5.21,1.254,-161.252
354057526235,354055526235,354.057526235,354.055526235,-0.021,0.09,0.995,0.0,0.0,-0.671,0.0034889712795004428,5.21,1.253,-161.259
354067578402,354065578402,354.067578402,354.065578402,-0.021,0.09,0.995,0.0,0.0,-0.671,0.003343607490170054,5.209,1.253,-161.267
354077618612,354075618612,354.077618612,354.075618612,-0.021,0.09,0.995,0.0,0.0,-0.671,0.003051372517945286,5.209,1.253,-161.274
354087846360,354085846360,354.08784636,354.08584636,-0.021,0.09,0.995,0.0,0.0,-0.671,0.0026440662198878675,5.209,1.252,-161.281
354097905819,354095905819,354.097905819,354.095905819,-0.021,0.09,0.995,0.0,0.0,-0.671,0.0021668018322362967,5.208,1.252,-161.288
354107950986,354105950986,354.107950986,354.105950986,-0.021,0.089,0.995,0.0,0.0,-0.671,0.0016335331832053664,5.208,1.252,-161.295
354118007529,354116007529,354.118007529,354.116007529,-0.021,0.089,0.995,0.0,0.0,-0.671,0.0010599377282333549,5.207,1.252,-161.303
354128209027,354126209027,354.128209027,354.126209027,-0.021,0.089,0.995,0.0,0.0,0.0,0.0023513343331418423,5.207,1.252,-161.31
354138334402,354136334402,354.138334402,354.136334402,-0.021,0.089,0.995,0.0,0.0,-0.671,0.0030862232944789897,5.206,1.251,-161.318
354148322404,354146322404,354.148322404,354.146322404,-0.021,0.089,0.995,0.0,0.0,-0.671,0.003432109128938983,5.206,1.251,-161.325
354158518944,354156518944,354.158518944,354.156518944,-0.021,0.089,0.995,0.0,0.0,-0.671,0.003493595147207366,5.206,1.251,-161.332
354168643736,354166643736,354.168643736,354.166643736,-0.021,0.089,0.995,0.0,0.0,-0.671,0.0033505468380119366,5.205,1.251,-161.339
354178608696,354176608696,354.178608696,354.176608696,-0.021,0.089,0.995,0.0,0.0,-0.671,0.003060278860613356,5.205,1.251,-161.347
354188841111,354186841111,354.188841111,354.186841111,-0.021,0.089,0.995,0.0,0.0,-0.671,0.002654809216653455,5.204,1.251,-161.354
354198871987,354196871987,354.198871987,354.196871987,-0.021,0.089,0.995,0.0,0.0,-0.671,0.0021783153944235265,5.204,1.25,-161.361
354208941362,354206941362,354.208941362,354.206941362,-0.021,0.089,0.995,0.0,0.0,-0.671,0.0016456363220063123,5.203,1.25,-161.369
354218962905,354216962905,354.218962905,354.216962905,-0.021,0.089,0.995,0.0,0.0,-0.671,0.0010738281675347656,5.203,1.25,-161.376
354229235570,354227235570,354.22923557,354.22723557,-0.021,0.089,0.995,0.0,0.0,-0.671,0.0004594813100243279,5.202,1.25,-161.383
354239218613,354237218613,354.239218613,354.237218613,-0.022,0.089,0.995,0.0,0.0,0.0,0.0016812441121052573,5.202,1.25,-161.39
354249283030,354247283030,354.24928303,354.24728303,-0.022,0.089,0.995,0.0,0.0,-0.671,0.002383103730986721,5.201,1.25,-161.398
354259323822,354257323822,354.259323822,354.257323822,-0.022,0.089,0.995,0.0,0.0,-0.671,0.002704493217184626,5.201,1.25,-161.405
354269532029,354267532029,354.269532029,354.267532029,-0.022,0.089,0.995,0.0,0.0,-0.671,0.0027483369611091294,5.2,1.25,-161.412
354279583322,354277583322,354.279583322,354.277583322,-0.022,0.089,0.995,0.0,0.0,-0.671,0.0025926215001393096,5.2,1.25,-161.42
354289642781,354287642781,354.289642781,354.287642781,-0.022,0.089,0.995,0.0,0.0,-0.671,0.0022926805032176738,5.199,1.25,-161.427
354299884821,354297884821,354.299884821,354.297884821,-0.022,0.089,0.995,0.0,0.0,-0.671,0.0018786420246634339,5.199,1.25,-161.434
354309927946,354307927946,354.309927946,354.307927946,-0.022,0.089,0.995,0.0,0.0,-0.671,0.0013974142982981364,5.198,1.25,-161.441
354319944239,354317944239,354.319944239,354.317944239,-0.022,0.089,0.995,0.0,0.0,-0.671,0.0008635176066637698,5.198,1.25,-161.449
354330161780,354328161780,354.33016178,354.32816178,-0.022,0.089,0.995,0.0,0.0,-0.671,0.000277927937366956,5.197,1.25,-161.456
354340217155,354338217155,354.340217155,354.338217155,-0.022,0.089,0.995,0.0,0.0,0.0,0.0015263816032917476,5.197,1.25,-161.463
354350251531,354348251531,354.350251531,354.348251531,-0.022,0.089,0.995,0.0,0.0,-0.671,0.002244460985506083,5.196,1.25,-161.471
354360385364,354358385364,354.360385364,354.358385364,-0.022,0.089,0.995,0.0,0.0,-0.671,0.0025786833751041665,5.195,1.25,-161.478
354370518322,354368518322,354.370518322,354.368518322,-0.022,0.089,0.995,0.0,0.0,-0.671,0.002631670609974904,5.195,1.25,-161.485
354380573114,354378573114,354.380573114,354.378573114,-0.022,0.089,0.995,0.0,0.0,-0.671,0.0024821795918444863,5.195,1.251,-161.492
354390642198,354388642198,354.390642198,354.388642198,-0.022,0.089,0.995,0.0,0.0,-0.671,0.002187627254779459,5.194,1.251,-161.499
354400899988,354398899988,354.400899988,354.398899988,-0.022,0.089,0.995,0.0,0.0,-0.671,0.0017785228357686605,5.194,1.251,-161.506
354410869615,354408869615,354.410869615,354.408869615,-0.022,0.089,0.995,0.0,0.0,-0.671,0.0013002353954580852,5.193,1.251,-161.514
354421129738,354419129738,354.421129738,354.419129738,-0.022,0.089,0.995,0.0,0.0,-0.671,0.0007563033622943079,5.193,1.252,-161.521
354431205530,354429205530,354.43120553,354.42920553,-0.022,0.089,0.995,0.0,0.0,-0.671,0.00018177989044590464,5.192,1.252,-161.528
354441264697,354439264697,354.441264697,354.439264697,-0.022,0.089,0.995,0.0,0.0,0.0,0.0014331965479893955,5.192,1.252,-161.535
354451223824,354449223824,354.451223824,354.449223824,-0.022,0.089,0.995,0.0,0.0,-0.671,0.002152140239698879,5.191,1.252,-161.543
354461506988,354459506988,354.461506988,354.459506988,-0.022,0.089,0.995,0.0,0.0,-0.671,0.002488746588047025,5.191,1.252,-161.55
354471508698,354469508698,354.471508698,354.469508698,-0.022,0.089,0.995,0.0,0.0,-0.671,0.0025418219535446214,5.19,1.253,-161.558
354481586823,354479586823,354.481586823,354.479586823,-0.022,0.089,0.995,0.0,0.0,-0.671,0.0023934418634197095,5.19,1.253,-161.565
354491738156,354489738156,354.491738156,354.489738156,-0.022,0.089,0.995,0.0,0.0,-0.671,0.0020924797590653214,5.189,1.253,-161.572
354501865572,354499865572,354.501865572,354.499865572,-0.022,0.089,0.995,0.0,0.0,-0.671,0.0016899312718906443,5.189,1.253,-161.579
354512068821,354510068821,354.512068821,354.510068821,-0.022,0.089,0.995,0.0,0.0,-0.671,0.0012002813393862876,5.189,1.254,-161.586
354522070531,354520070531,354.522070531,354.520070531,-0.022,0.089,0.995,0.0,0.0,-0.671,0.0006682288948034281,5.188,1.254,-161.593
354532158573,354530158573,354.532158573,354.530158573,-0.022,0.089,0.995,0.0,0.0,0.0,0.0019416737615317496,5.188,1.254,-161.601
354542324780,354540324780,354.54232478,354.54032478,-0.022,0.089,0.995,0.0,0.0,-0.671,0.0026859405920180764,5.188,1.254,-161.608
354552376364,354550376364,354.552376364,354.550376364,-0.022,0.089,0.995,0.0,0.0,-0.671,0.0030294353839515373,5.187,1.255,-161.616
354562428532,354560428532,354.562428532,354.560428532,-0.022,0.089,0.995,0.0,0.0,-0.671,0.0030915666144295355,5.187,1.255,-161.623
354572634114,354570634114,354.572634114,354.570634114,-0.022,0.089,0.995,0.0,0.0,-0.671,0.0029469014635375283,5.187,1.255,-161.63
354582832404,354580832404,354.582832404,354.580832404,-0.022,0.089,0.995,0.0,0.0,-0.671,0.002648718133698746,5.187,1.255,-161.637
354592839947,354590839947,354.592839947,354.590839947,-0.022,0.089,0.995,0.0,0.0,-0.671,0.002250104434168318,5.186,1.256,-161.644
354602914573,354600914573,354.602914573,354.600914573,-0.022,0.089,0.995,0.0,0.0,-0.671,0.0017737050606449543,5.186,1.256,-161.651
354612932032,354610932032,354.612932032,354.610932032,-0.022,0.09,0.995,0.0,0.0,-0.671,0.0012414716464706032,5.186,1.256,-161.658
354623171155,354621171155,354.623171155,354.621171155,-0.022,0.09,0.995,0.0,0.0,-0.671,0.0006567072829336835,5.186,1.257,-161.665
354633197073,354631197073,354.633197073,354.631197073,-0.022,0.09,0.995,0.0,0.0,-0.671,5.5344099106199075e-05,5.185,1.257,-161.672
354643240490,354641240490,354.64324049,354.64124049,-0.022,0.09,0.995,0.0,0.0,0.0,0.001283020285691551,5.185,1.257,-161.679
354653461239,354651461239,354.653461239,354.651461239,-0.022,0.09,0.995,0.0,0.0,-0.671,0.0019919420410765293,5.185,1.258,-161.687
354663581364,354661581364,354.663581364,354.661581364,-0.022,0.09,0.995,0.0,0.0,-0.671,0.002310820587296775,5.185,1.258,-161.694
354673570824,354671570824,354.673570824,354.671570824,-0.022,0.09,0.995,0.0,0.0,-0.671,0.0023549034821142333,5.185,1.258,-161.7
354683520617,354681520617,354.683520617,354.681520617,-0.022,0.09,0.995,0.0,0.0,-0.671,0.0022027515326821013,5.185,1.258,-161.707
354693740199,354691740199,354.693740199,354.691740199,-0.022,0.09,0.995,0.0,0.0,-0.671,0.0018974456905917455,5.185,1.259,-161.715
354703789450,354701789450,354.70378945,354.70178945,-0.022,0.09,0.995,0.0,0.0,-0.671,0.0014929794800835417,5.185,1.259,-161.722
354713855325,354711855325,354.713855325,354.711855325,-0.022,0.09,0.995,0.0,0.0,-0.671,0.0010116862032657128,5.185,1.259,-161.729
354724134407,354722134407,354.724134407,354.722134407,-0.022,0.09,0.995,0.0,0.0,-0.671,0.00046472342608847397,5.184,1.26,-161.736
354734111033,354732111033,354.734111033,354.732111033,-0.022,0.09,0.995,0.0,0.0,-0.671,-0.00010789982723817614,5.184,1.26,-161.743
354744159992,354742159992,354.744159992,354.742159992,-0.022,0.09,0.996,0.0,0.0,0.0,0.0011388272186000515,5.184,1.26,-161.75
354754361783,354752361783,354.754361783,354.752361783,-0.022,0.09,0.996,0.0,0.0,-0.671,0.0018621868365503735,5.184,1.26,-161.757
354764644947,354762644947,354.764644947,354.762644947,-0.022,0.09,0.996,0.0,0.0,-0.671,0.0021921338460773217,5.184,1.261,-161.764
354774490909,354772490909,354.774490909,354.772490909,-0.022,0.09,0.996,0.0,0.0,-0.671,0.0022423182841703852,5.184,1.261,-161.771
354784510993,354782510993,354.784510993,354.782510993,-0.022,0.09,0.996,0.0,0.0,-0.671,0.0020930157206835126,5.185,1.262,-161.778
354794793574,354792793574,354.794793574,354.792793574,-0.022,0.09,0.996,0.0,0.0,-0.671,0.0017908217900821314,5.185,1.262,-161.785
354804792659,354802792659,354.804792659,354.802792659,-0.022,0.09,0.996,0.0,0.0,-0.671,0.0013885412826781852,5.185,1.262,-161.792
354814891784,354812891784,354.814891784,354.812891784,-0.022,0.09,0.996,0.0,0.0,-0.671,0.0009098865637564811,5.185,1.263,-161.799
354825160657,354823160657,354.825160657,354.823160657,-0.022,0.09,0.996,0.0,0.0,-0.671,0.00036256310041410676,5.185,1.263,-161.806
354835101117,354833101117,354.835101117,354.833101117,-0.022,0.09,0.996,0.0,0.0,-0.671,-0.0002095787280095893,5.185,1.263,-161.813
354845205201,354843205201,354.845205201,354.843205201,-0.022,0.09,0.996,0.0,0.0,-0.671,-0.0008125210945657356,5.185,1.263,-161.819
354855353909,354853353909,354.855353909,354.853353909,-0.022,0.09,0.996,0.0,0.0,0.0,0.00046059179353501515,5.185,1.264,-161.826
354865411909,354863411909,354.865411909,354.863411909,-0.022,0.09,0.996,0.0,0.0,-0.671,0.001180737284946272,5.185,1.264,-161.834
354875465535,354873465535,354.875465535,354.873465535,-0.023,0.09,0.996,0.0,0.0,-0.671,0.001516484963301637,5.185,1.265,-161.84
354885487077,354883487077,354.885487077,354.883487077,-0.023,0.09,0.996,0.0,0.0,-0.671,0.0015731651413577487,5.185,1.265,-161.847
354895527287,354893527287,354.895527287,354.893527287,-0.023,0.09,0.996,0.0,0.0,-0.671,0.0014275305953941795,5.186,1.266,-161.854
354905748619,354903748619,354.905748619,354.903748619,-0.023,0.09,0.996,0.0,0.0,-0.671,0.00112815793462387,5.186,1.266,-161.861
354915872243,354913872243,354.915872243,354.913872243,-0.023,0.09,0.996,0.0,0.0,-0.671,0.0007278663136275794,5.186,1.267,-161.868
354925919452,354923919452,354.925919452,354.923919452,-0.023,0.09,0.996,0.0,0.0,-0.671,0.0002500482280425368,5.186,1.267,-161.874
354936101993,354934101993,354.936101993,354.934101993,-0.023,0.09,0.996,0.0,0.0,-0.671,-0.0002943804709191478,5.187,1.267,-161.881
354946182452,354944182452,354.946182452,354.944182452,-0.023,0.09,0.996,0.0,0.0,-0.61,-0.000698960901689785,5.187,1.268,-161.888
354956157328,354954157328,354.956157328,354.954157328,-0.023,0.09,0.996,0.0,0.0,0.0,0.0006714877080518567,5.187,1.268,-161.894
354966384202,354964384202,354.966384202,354.964384202,-0.023,0.09,0.996,0.0,0.0,-0.61,0.001658859595520257,5.187,1.269,-161.902
354976427328,354974427328,354.976427328,354.974427328,-0.023,0.09,0.996,0.0,0.0,-0.61,0.00234432052836599,5.187,1.269,-161.908
354986477745,354984477745,354.986477745,354.984477745,-0.023,0.09,0.996,0.0,0.0,-0.61,0.0028229808513581946,5.188,1.27,-161.915
354996589995,354994589995,354.996589995,354.994589995,-0.023,0.091,0.996,0.0,0.0,-0.61,0.0031515330598192873,5.188,1.27,-161.921
355006732869,355004732869,355.006732869,355.004732869,-0.023,0.091,0.996,0.0,0.0,-0.61,0.0033735998545553975,5.188,1.271,-161.928
355016793203,355014793203,355.016793203,355.014793203,-0.023,0.091,0.996,0.0,0.0,-0.61,0.003513672264638633,5.189,1.272,-161.935
355026815913,355024815913,355.026815913,355.024815913,-0.023,0.091,0.996,0.0,0.0,-0.61,0.003596386946252805,5.189,1.272,-161.941
355037067286,355035067286,355.037067286,355.035067286,-0.023,0.091,0.996,0.0,0.0,-0.61,0.0036384668588871857,5.189,1.273,-161.948
355047026704,355045026704,355.047026704,355.045026704,-0.023,0.091,0.996,0.0,0.0,-0.61,0.0036498564375448492,5.19,1.273,-161.954
355057110371,355055110371,355.057110371,355.055110371,-0.023,0.091,0.996,0.0,0.0,-0.61,0.0036396145357027016,5.19,1.274,-161.961
355067324412,355065324412,355.067324412,355.065324412,-0.023,0.091,0.996,0.0,0.0,-0.61,0.0036130164511581184,5.19,1.275,-161.968
355077343329,355075343329,355.077343329,355.075343329,-0.023,0.091,0.996,0.0,0.0,-0.61,0.003575782511742534,5.191,1.275,-161.975
355087389955,355085389955,355.087389955,355.085389955,-0.023,0.091,0.996,0.0,0.0,-0.61,0.003529941601558815,5.191,1.276,-161.981
355097405373,355095405373,355.097405373,355.095405373,-0.023,0.091,0.996,0.0,0.0,-0.61,0.0034784774986530587,5.191,1.276,-161.988
355107726162,355105726162,355.107726162,355.105726162,-0.023,0.091,0.996,0.0,0.0,-0.61,0.0034210900023463955,5.192,1.277,-161.994
355117727872,355115727872,355.117727872,355.115727872,-0.023,0.091,0.996,0.0,0.0,-0.61,0.0033624065840237314,5.192,1.277,-162.001
355127707123,355125707123,355.127707123,355.125707123,-0.023,0.091,0.996,0.0,0.0,-0.61,0.0033010447675152744,5.192,1.278,-162.007
355137833665,355135833665,355.137833665,355.135833665,-0.023,0.091,0.996,0.0,0.0,-0.61,0.0032378272518309046,5.193,1.279,-162.014
355148126746,355146126746,355.148126746,355.146126746,-0.023,0.091,0.996,0.0,0.0,-0.61,0.0031719753375262366,5.193,1.279,-162.02
355158082664,355156082664,355.158082664,355.156082664,-0.023,0.091,0.996,0.0,0.0,-0.61,0.0031069941851194368,5.193,1.28,-162.026
355168104790,355166104790,355.16810479,355.16610479,-0.023,0.091,0.996,0.0,0.0,0.0,0.004717969682122531,5.194,1.28,-162.033
355178384163,355176384163,355.178384163,355.176384163,-0.023,0.091,0.996,0.0,0.0,-0.61,0.005884355463788494,5.194,1.281,-162.04
355188398997,355186398997,355.188398997,355.186398997,-0.023,0.091,0.996,0.0,0.0,-0.61,0.006695929020403571,5.194,1.282,-162.046
355198388749,355196388749,355.198388749,355.196388749,-0.023,0.091,0.996,0.0,0.0,-0.61,0.007268499516223753,5.195,1.282,-162.053
355208696413,355206696413,355.208696413,355.206696413,-0.023,0.091,0.996,0.0,0.0,-0.61,0.007669994458672628,5.195,1.283,-162.06
355218640665,355216640665,355.218640665,355.216640665,-0.023,0.091,0.996,0.0,0.0,-0.61,0.00793626346607894,5.196,1.283,-162.066
355228964954,355226964954,355.228964954,355.226964954,-0.023,0.091,0.996,0.0,0.0,-0.61,0.008113926300066432,5.196,1.284,-162.073
355238971039,355236971039,355.238971039,355.236971039,-0.023,0.091,0.996,0.0,0.0,-0.61,0.008221511319567453,5.196,1.285,-162.079
355248972165,355246972165,355.248972165,355.246972165,-0.023,0.091,0.996,0.0,0.0,-0.61,0.00828135205965649,5.197,1.285,-162.086
355259178622,355257178622,355.259178622,355.257178622,-0.023,0.091,0.996,0.0,0.0,-0.61,0.008306107910140971,5.197,1.285,-162.092
355269301080,355267301080,355.26930108,355.26730108,-0.023,0.091,0.996,0.0,0.0,0.0,0.009998520126515066,5.197,1.286,-162.099
355279220832,355277220832,355.279220832,355.277220832,-0.023,0.091,0.996,0.0,0.0,-0.61,0.011198787747828032,5.198,1.286,-162.106
355289339791,355287339791,355.289339791,355.287339791,-0.023,0.091,0.996,0.0,0.0,-0.61,0.012055901836616803,5.198,1.286,-162.112
355299512123,355297512123,355.299512123,355.297512123,-0.023,0.091,0.996,0.0,0.0,-0.61,0.012666647302919727,5.198,1.287,-162.119
355309538041,355307538041,355.309538041,355.307538041,-0.023,0.091,0.996,0.0,0.0,-0.61,0.013081939683730167,5.199,1.287,-162.125
355319575917,355317575917,355.319575917,355.317575917,-0.023,0.091,0.996,0.0,0.0,-0.61,0.01336539034652029,5.199,1.287,-162.132
355329810373,355327810373,355.329810373,355.327810373,-0.023,0.091,0.996,0.0,0.0,-0.61,0.013554729101429134,5.199,1.288,-162.138
355340013331,355338013331,355.340013331,355.338013331,-0.023,0.091,0.996,0.0,0.0,-0.61,0.013672050476961519,5.2,1.288,-162.145
355350059665,355348059665,355.350059665,355.348059665,-0.023,0.091,0.996,0.0,0.0,-0.61,0.013737338542627413,5.2,1.288,-162.152
355360227914,355358227914,355.360227914,355.358227914,-0.023,0.091,0.996,0.0,0.0,-0.61,0.013766174314560144,5.2,1.288,-162.158
355370257915,355368257915,355.370257915,355.368257915,-0.023,0.091,0.996,0.0,0.0,0.0,0.015446512228236502,5.201,1.289,-162.165
355380421206,355378421206,355.380421206,355.378421206,-0.022,0.091,0.996,0.0,0.0,-0.61,0.01665493474097595,5.201,1.289,-162.172
355390418249,355388418249,355.390418249,355.388418249,-0.022,0.091,0.996,0.0,0.0,-0.61,0.017504212042969435,5.201,1.289,-162.179
355400632872,355398632872,355.400632872,355.398632872,-0.022,0.091,0.996,0.0,0.0,-0.61,0.018112917376831864,5.202,1.288,-162.186
355410634874,355408634874,355.410634874,355.408634874,-0.022,0.091,0.996,0.0,0.0,-0.671,0.018358610466690982,5.202,1.288,-162.192
355420748582,355418748582,355.420748582,355.418748582,-0.022,0.091,0.996,0.0,0.0,-0.671,0.018350842378245108,5.202,1.288,-162.199
355430925581,355428925581,355.430925581,355.428925581,-0.022,0.091,0.996,0.0,0.0,-0.671,0.018151606316889914,5.202,1.288,-162.206
355440994082,355438994082,355.440994082,355.438994082,-0.022,0.091,0.996,0.0,0.0,-0.671,0.017825285990303932,5.202,1.287,-162.213
355451113623,355449113623,355.451113623,355.449113623,-0.022,0.091,0.996,0.0,0.0,-0.671,0.017397000799190297,5.203,1.287,-162.219
355461183873,355459183873,355.461183873,355.459183873,-0.022,0.091,0.996,0.0,0.0,-0.671,0.016896698728733665,5.203,1.287,-162.226
355471300207,355469300207,355.471300207,355.469300207,-0.022,0.091,0.996,0.0,0.0,-0.671,0.0163459396075326,5.203,1.287,-162.233
355481279458,355479279458,355.481279458,355.479279458,-0.022,0.091,0.996,0.0,0.0,-0.671,0.015766829842026753,5.203,1.287,-162.24
355491378875,355489378875,355.491378875,355.489378875,-0.022,0.091,0.996,0.0,0.0,-0.671,0.015153531290227206,5.204,1.286,-162.248
355501545666,355499545666,355.501545666,355.499545666,-0.021,0.09,0.996,0.0,0.0,-0.671,0.01451617928614313,5.204,1.286,-162.255
355511722957,355509722957,355.511722957,355.509722957,-0.021,0.09,0.996,0.0,0.0,-0.671,0.013869704269952071,5.204,1.285,-162.261
355521686458,355519686458,355.521686458,355.519686458,-0.021,0.09,0.996,0.0,0.0,-0.671,0.013216427177146491,5.204,1.285,-162.268
355531733084,355529733084,355.531733084,355.529733084,-0.021,0.09,0.996,0.0,0.0,-0.671,0.012555712739964775,5.204,1.284,-162.275
355542028498,355540028498,355.542028498,355.540028498,-0.021,0.09,0.996,0.0,0.0,-0.671,0.011878121090167027,5.204,1.283,-162.282
355552023792,355550023792,355.552023792,355.550023792,-0.021,0.09,0.996,0.0,0.0,-0.671,0.011208011120248943,5.204,1.282,-162.289
355562107458,355560107458,355.562107458,355.560107458,-0.021,0.09,0.996,0.0,0.0,-0.671,0.010534908187790931,5.204,1.281,-162.296
355572157001,355570157001,355.572157001,355.570157001,-0.021,0.09,0.996,0.0,0.0,-0.671,0.009860442694300095,5.204,1.281,-162.303
355582285001,355580285001,355.582285001,355.580285001,-0.021,0.09,0.996,0.0,0.0,-0.671,0.009175655399986734,5.204,1.28,-162.31
355592347376,355590347376,355.592347376,355.590347376,-0.021,0.09,0.996,0.0,0.0,-0.671,0.008495612872554485,5.204,1.279,-162.317
355602408002,355600408002,355.602408002,355.600408002,-0.021,0.09,0.996,0.0,0.0,-0.671,0.007816134996109645,5.204,1.278,-162.325
355612672791,355610672791,355.612672791,355.610672791,-0.021,0.09,0.996,0.0,0.0,-0.671,0.007126154199304524,5.204,1.277,-162.332
355622668376,355620668376,355.622668376,355.620668376,-0.021,0.09,0.996,0.0,0.0,-0.671,0.0064469027832424865,5.204,1.277,-162.339
355632771293,355630771293,355.632771293,355.630771293,-0.02,0.09,0.996,0.0,0.0,-0.671,0.005768424622174229,5.204,1.276,-162.347
355642819960,355640819960,355.64281996,355.64081996,-0.02,0.09,0.996,0.0,0.0,-0.671,0.00508855788419978,5.204,1.275,-162.354
355653039250,355651039250,355.65303925,355.65103925,-0.02,0.09,0.996,0.0,0.0,-0.671,0.004397242322933473,5.204,1.274,-162.361
355663078876,355661078876,355.663078876,355.661078876,-0.02,0.09,0.996,0.0,0.183,-0.671,0.003717480863432299,5.204,1.274,-162.368
355673059294,355671059294,355.673059294,355.671059294,-0.02,0.09,0.996,0.061,0.183,-0.671,0.0030374616374368763,5.205,1.275,-162.375
355683329334,355681329334,355.683329334,355.681329334,-0.02,0.09,0.996,0.061,0.183,-0.671,0.002345440084408178,5.205,1.276,-162.383
355693348544,355691348544,355.693348544,355.691348544,-0.02,0.09,0.996,0.061,0.183,-0.732,0.001498338558927848,5.206,1.277,-162.391
355703613333,355701613333,355.703613333,355.701613333,-0.02,0.09,0.996,0.061,0.244,-0.732,0.0005087766168322583,5.207,1.278,-162.398
355713671917,355711671917,355.713671917,355.711671917,-0.02,0.09,0.996,0.061,0.244,-0.732,-0.0005534547670988364,5.207,1.28,-162.405
355723709793,355721709793,355.723709793,355.721709793,-0.02,0.09,0.996,0.061,0.244,-0.671,-0.001508985992824886,5.208,1.281,-162.413
355733670670,355731670670,355.73367067,355.73167067,-0.02,0.09,0.996,0.122,0.244,-0.732,-0.002555057143362615,5.209,1.283,-162.42
355743929626,355741929626,355.743929626,355.741929626,-0.02,0.09,0.996,0.122,0.305,-0.732,-0.003690271060935845,5.211,1.284,-162.427
355753968669,355751968669,355.753968669,355.751968669,-0.02,0.09,0.996,0.122,0.305,-0.732,-0.0048566134113428245,5.212,1.286,-162.435
355764190876,355762190876,355.764190876,355.762190876,-0.02,0.09,0.996,0.122,0.305,-0.671,-0.005904842833453951,5.213,1.288,-162.442
355774262876,355772262876,355.774262876,355.772262876,-0.02,0.09,0.996,0.122,0.305,-0.671,-0.0068373241415387925,5.214,1.29,-162.449
355784232211,355782232211,355.784232211,355.782232211,-0.02,0.09,0.996,0.183,0.305,-0.732,-0.007870085366962948,5.216,1.292,-162.457
355794280003,355792280003,355.794280003,355.792280003,-0.02,0.09,0.996,0.183,0.305,0.0,-0.0069538057939036915,5.217,1.294,-162.464
355804331296,355802331296,355.804331296,355.802331296,-0.02,0.09,0.996,0.183,0.366,-0.732,-0.006644621063888824,5.219,1.297,-162.472
355814475045,355812475045,355.814475045,355.812475045,-0.02,0.09,0.996,0.183,0.366,-0.732,-0.006776619222220648,5.221,1.299,-162.48
355824643878,355822643878,355.824643878,355.822643878,-0.02,0.09,0.996,0.244,0.366,-0.732,-0.007238067197888477,5.223,1.301,-162.487
355834661629,355832661629,355.834661629,355.832661629,-0.02,0.09,0.996,0.244,0.366,-0.732,-0.007923811659889665,5.224,1.303,-162.495
355844768046,355842768046,355.844768046,355.842768046,-0.02,0.09,0.996,0.244,0.366,-0.732,-0.008774614607009484,5.227,1.306,-162.502
355854924628,355852924628,355.854924628,355.852924628,-0.02,0.09,0.996,0.244,0.366,-0.732,-0.009765595072327587,5.229,1.308,-162.51
355864929546,355862929546,355.864929546,355.862929546,-0.02,0.09,0.996,0.244,0.366,-0.732,-0.010820827785192817,5.231,1.311,-162.517
355875002713,355873002713,355.875002713,355.873002713,-0.02,0.09,0.996,0.305,0.366,-0.732,-0.011952980938580668,5.233,1.313,-162.525
355885134505,355883134505,355.885134505,355.883134505,-0.021,0.089,0.995,0.305,0.366,-0.732,-0.013124632336776743,5.236,1.316,-162.532
355895287296,355893287296,355.895287296,355.893287296,-0.021,0.089,0.995,0.305,0.366,-0.732,-0.014352756458924547,5.238,1.319,-162.54
355905312338,355903312338,355.905312338,355.903312338,-0.021,0.089,0.995,0.305,0.366,-0.732,-0.015579271370196488,5.241,1.322,-162.547
355915365089,355913365089,355.915365089,355.913365089,-0.021,0.089,0.995,0.305,0.366,-0.732,-0.016827474112379007,5.244,1.324,-162.556
355925611796,355923611796,355.925611796,355.923611796,-0.021,0.089,0.995,0.305,0.366,-0.732,-0.01810801129974439,5.246,1.327,-162.563
355935624589,355933624589,355.935624589,355.933624589,-0.021,0.089,0.995,0.305,0.366,-0.732,-0.019376228475778984,5.249,1.329,-162.571
355945721964,355943721964,355.945721964,355.943721964,-0.021,0.089,0.995,0.366,0.366,-0.732,-0.020652386307454626,5.251,1.332,-162.578
355955892546,355953892546,355.955892546,355.953892546,-0.021,0.089,0.995,0.366,0.366,-0.732,-0.021955392838767886,5.254,1.334,-162.586
355965823090,355963823090,355.96582309,355.96382309,-0.021,0.089,0.995,0.366,0.366,-0.732,-0.023221072683366283,5.257,1.337,-162.593
355975820716,355973820716,355.975820716,355.973820716,-0.021,0.089,0.995,0.366,0.366,-0.732,-0.024502948356532737,5.259,1.339,-162.6
355985929758,355983929758,355.985929758,355.983929758,-0.021,0.089,0.995,0.366,0.366,-0.732,-0.025800054655074157,5.262,1.342,-162.608
355996078174,355994078174,355.996078174,355.994078174,-0.021,0.089,0.995,0.366,0.366,-0.732,-0.02710297845927391,5.265,1.344,-162.615
356006174091,356004174091,356.006174091,356.004174091,-0.021,0.089,0.995,0.366,0.305,0.0,-0.026361610335384242,5.268,1.346,-162.623
356016239966,356014239966,356.016239966,356.014239966,-0.022,0.089,0.995,0.366,0.305,-0.671,-0.026013947075299984,5.271,1.348,-162.631
356026285717,356024285717,356.026285717,356.024285717,-0.022,0.089,0.995,0.366,0.305,-0.732,-0.026118630916870594,5.273,1.351,-162.638
356036500049,356034500049,356.036500049,356.034500049,-0.022,0.089,0.995,0.366,0.305,-0.732,-0.026560018672155024,5.276,1.354,-162.645
356046571758,356044571758,356.046571758,356.044571758,-0.022,0.089,0.995,0.366,0.305,-0.732,-0.02722696141795886,5.279,1.356,-162.653
356056551301,356054551301,356.056551301,356.054551301,-0.022,0.089,0.995,0.366,0.305,-0.732,-0.02806630801946666,5.282,1.358,-162.66
356066809383,356064809383,356.066809383,356.064809383,-0.022,0.089,0.995,0.366,0.244,-0.671,-0.028876575988691443,5.284,1.36,-162.667
356076834717,356074834717,356.076834717,356.074834717,-0.022,0.089,0.995,0.366,0.244,-0.671,-0.02964058088639279,5.287,1.362,-162.675
356086855968,356084855968,356.086855968,356.084855968,-0.022,0.089,0.995,0.366,0.244,-0.671,-0.03038143896438194,5.289,1.364,-162.682
356097125424,356095125424,356.097125424,356.095125424,-0.022,0.089,0.995,0.366,0.244,-0.671,-0.031121880400490468,5.292,1.365,-162.689
356107187508,356105187508,356.107187508,356.105187508,-0.022,0.089,0.995,0.366,0.183,-0.671,-0.03183495044265837,5.294,1.367,-162.696
356117213134,356115213134,356.117213134,356.115213134,-0.022,0.089,0.995,0.366,0.183,-0.671,-0.03253655630281366,5.297,1.368,-162.704
356127423383,356125423383,356.127423383,356.125423383,-0.022,0.089,0.995,0.366,0.183,-0.671,-0.03324605323278621,5.299,1.369,-162.712
356137473509,356135473509,356.137473509,356.135473509,-0.023,0.09,0.995,0.366,0.183,-0.671,-0.03393805502627311,5.301,1.37,-162.719
356147553967,356145553967,356.147553967,356.145553967,-0.023,0.09,0.995,0.366,0.122,-0.671,-0.034627078095227276,5.304,1.372,-162.726
356157563260,356155563260,356.15756326,356.15556326,-0.023,0.09,0.995,0.366,0.122,-0.671,-0.035314048007317286,5.306,1.373,-162.733
356167601136,356165601136,356.167601136,356.165601136,-0.023,0.09,0.995,0.305,0.122,-0.671,-0.03599785672141897,5.308,1.374,-162.741
356177810801,356175810801,356.177810801,356.175810801,-0.023,0.09,0.995,0.305,0.061,-0.671,-0.03669261563425578,5.31,1.375,-162.748
356187872302,356185872302,356.187872302,356.185872302,-0.023,0.09,0.995,0.305,0.061,-0.671,-0.037376430458171225,5.312,1.375,-162.755
356197862637,356195862637,356.197862637,356.195862637,-0.023,0.09,0.995,0.305,0.061,-0.671,-0.03805488899789648,5.314,1.376,-162.762
356208145801,356206145801,356.208145801,356.206145801,-0.023,0.09,0.995,0.305,0.061,-0.671,-0.038750651209308394,5.316,1.376,-162.769
356218172594,356216172594,356.218172594,356.216172594,-0.023,0.09,0.995,0.305,0.0,0.0,-0.037578268624445695,5.318,1.377,-162.776
356228224761,356226224761,356.228224761,356.226224761,-0.023,0.09,0.995,0.305,0.0,-0.671,-0.03691523145440005,5.319,1.376,-162.784
356238253304,356236253304,356.238253304,356.236253304,-0.023,0.09,0.995,0.305,0.0,-0.671,-0.03662153175296532,5.321,1.376,-162.791
356248539968,356246539968,356.248539968,356.246539968,-0.023,0.09,0.995,0.244,0.0,-0.671,-0.036598168869709756,5.322,1.376,-162.798
356258538761,356256538761,356.258538761,356.256538761,-0.023,0.09,0.995,0.244,0.0,-0.671,-0.03676844737459444,5.324,1.375,-162.805
356268584512,356266584512,356.268584512,356.266584512,-0.024,0.09,0.995,0.244,0.0,-0.671,-0.03707865691716631,5.325,1.375,-162.812
356278871760,356276871760,356.27887176,356.27687176,-0.024,0.09,0.995,0.244,-0.061,-0.671,-0.037498852418317755,5.326,1.374,-162.819
356288867928,356286867928,356.288867928,356.286867928,-0.024,0.09,0.995,0.244,-0.061,-0.671,-0.03798591202899427,5.327,1.374,-162.826
356298959469,356296959469,356.298959469,356.296959469,-0.024,0.09,0.995,0.183,-0.061,-0.671,-0.03852630960929683,5.328,1.373,-162.833
356309071428,356307071428,356.309071428,356.307071428,-0.024,0.09,0.995,0.183,-0.122,-0.671,-0.03911172614891409,5.329,1.372,-162.84
356319117179,356317117179,356.319117179,356.317117179,-0.024,0.09,0.995,0.183,-0.122,0.0,-0.03786780373041124,5.33,1.37,-162.847
356329218345,356327218345,356.329218345,356.327218345,-0.024,0.09,0.995,0.183,-0.183,-0.671,-0.03715060578416559,5.331,1.369,-162.855
356339272263,356337272263,356.339272263,356.337272263,-0.024,0.09,0.995,0.183,-0.183,-0.671,-0.036819352710651815,5.332,1.367,-162.861
356349669467,356347669467,356.349669467,356.347669467,-0.024,0.09,0.995,0.183,-0.183,-0.671,-0.03677068962950342,5.333,1.365,-162.868
356359725426,356357725426,356.359725426,356.357725426,-0.024,0.09,0.995,0.183,-0.183,-0.671,-0.036923614799801587,5.333,1.363,-162.875
356369858676,356367858676,356.369858676,356.367858676,-0.024,0.09,0.995,0.183,-0.244,-0.671,-0.03722745248039735,5.334,1.361,-162.882
356379906177,356377906177,356.379906177,356.377906177,-0.024,0.09,0.995,0.183,-0.244,-0.671,-0.037631466892604236,5.334,1.359,-162.888
356390212091,356388212091,356.390212091,356.388212091,-0.024,0.09,0.995,0.183,-0.244,-0.671,-0.03812188276347148,5.335,1.356,-162.895
356400244717,356398244717,356.400244717,356.398244717,-0.024,0.09,0.995,0.122,-0.244,-0.671,-0.038656157814944435,5.335,1.354,-162.902
356410249343,356408249343,356.410249343,356.408249343,-0.024,0.09,0.995,0.122,-0.305,-0.671,-0.039231443333888914,5.336,1.351,-162.909
356420282261,356418282261,356.420282261,356.418282261,-0.024,0.09,0.995,0.122,-0.305,0.0,-0.03797967568558172,5.336,1.348,-162.915
356430330636,356428330636,356.430330636,356.428330636,-0.024,0.09,0.995,0.122,-0.305,-0.61,-0.0370939892636997,5.337,1.345,-162.923
356440559260,356438559260,356.44055926,356.43855926,-0.024,0.09,0.995,0.122,-0.366,-0.61,-0.03646141486033535,5.337,1.342,-162.929
356450648468,356448648468,356.450648468,356.448648468,-0.024,0.09,0.995,0.122,-0.366,-0.61,-0.03602639215779236,5.338,1.339,-162.936
356460650178,356458650178,356.460650178,356.458650178,-0.024,0.09,0.995,0.122,-0.366,-0.61,-0.0357306047273305,5.338,1.336,-162.943
356470836219,356468836219,356.470836219,356.468836219,-0.024,0.09,0.995,0.122,-0.366,-0.61,-0.035533033845089886,5.338,1.333,-162.949
356480977926,356478977926,356.480977926,356.478977926,-0.024,0.09,0.995,0.122,-0.366,-0.61,-0.03541021474089034,5.338,1.329,-162.956
356490942303,356488942303,356.490942303,356.488942303,-0.024,0.09,0.995,0.122,-0.366,-0.61,-0.03533990018004906,5.338,1.326,-162.963
356501152552,356499152552,356.501152552,356.499152552,-0.024,0.09,0.995,0.122,-0.427,-0.61,-0.03530726309989922,5.339,1.322,-162.969
356511189261,356509189261,356.511189261,356.509189261,-0.024,0.09,0.995,0.122,-0.427,-0.61,-0.03530248518242475,5.339,1.319,-162.976
356521335052,356519335052,356.521335052,356.519335052,-0.024,0.091,0.995,0.122,-0.427,-0.61,-0.03531761497736895,5.339,1.315,-162.982
356531315471,356529315471,356.531315471,356.529315471,-0.024,0.091,0.995,0.122,-0.427,-0.61,-0.03534682120443362,5.339,1.311,-162.989
356541490136,356539490136,356.541490136,356.539490136,-0.024,0.091,0.995,0.122,-0.427,-0.61,-0.03538760365180811,5.339,1.307,-162.996
356551535595,356549535595,356.551535595,356.549535595,-0.024,0.091,0.995,0.122,-0.427,-0.61,-0.03543512515708624,5.339,1.302,-163.003
356561552763,356559552763,356.561552763,356.559552763,-0.024,0.091,0.995,0.122,-0.427,-0.61,-0.03548795113887382,5.34,1.298,-163.009
356571719262,356569719262,356.571719262,356.569719262,-0.024,0.091,0.995,0.122,-0.427,-0.61,-0.0355451740297318,5.34,1.294,-163.016
356581931261,356579931261,356.581931261,356.579931261,-0.024,0.091,0.995,0.122,-0.427,-0.61,-0.03560606200186724,5.34,1.29,-163.022
356591930929,356589930929,356.591930929,356.589930929,-0.024,0.091,0.995,0.122,-0.488,-0.61,-0.03566807194910181,5.341,1.286,-163.029
356601993013,356599993013,356.601993013,356.599993013,-0.024,0.091,0.995,0.122,-0.488,-0.61,-0.035731502862427905,5.341,1.282,-163.035
356612030889,356610030889,356.612030889,356.610030889,-0.024,0.091,0.995,0.122,-0.488,-0.61,-0.03579610476342523,5.342,1.278,-163.042
356622194180,356620194180,356.62219418,356.62019418,-0.024,0.091,0.995,0.122,-0.488,-0.61,-0.035862174598991894,5.342,1.274,-163.048
356632350763,356630350763,356.632350763,356.630350763,-0.024,0.091,0.995,0.122,-0.488,-0.61,-0.03592843555257338,5.342,1.27,-163.055
356642514345,356640514345,356.642514345,356.640514345,-0.024,0.091,0.995,0.122,-0.488,-0.61,-0.03599591927433202,5.343,1.265,-163.062
356652548429,356650548429,356.652548429,356.650548429,-0.023,0.091,0.996,0.122,-0.488,-0.61,-0.03606246894561087,5.344,1.261,-163.068
356662624221,356660624221,356.662624221,356.660624221,-0.023,0.091,0.996,0.122,-0.488,-0.61,-0.036128995006917825,5.344,1.256,-163.075
356672665306,356670665306,356.672665306,356.670665306,-0.023,0.091,0.996,0.183,-0.488,-0.61,-0.03619644176621935,5.345,1.252,-163.081
356682874096,356680874096,356.682874096,356.680874096,-0.023,0.091,0.996,0.183,-0.427,-0.61,-0.03626462100007027,5.345,1.248,-163.088
356692891264,356690891264,356.692891264,356.690891264,-0.023,0.091,0.996,0.183,-0.427,-0.61,-0.0363316941850245,5.346,1.244,-163.094
356703006139,356701006139,356.703006139,356.701006139,-0.023,0.091,0.996,0.183,-0.427,-0.61,-0.03639890998452642,5.347,1.239,-163.101
356712954182,356710954182,356.712954182,356.710954182,-0.023,0.091,0.996,0.183,-0.427,-0.61,-0.03646555392863455,5.348,1.235,-163.107
356723102598,356721102598,356.723102598,356.721102598,-0.023,0.091,0.996,0.183,-0.427,-0.61,-0.036534017432323214,5.348,1.231,-163.114
356733166724,356731166724,356.733166724,356.731166724,-0.023,0.091,0.996,0.183,-0.427,-0.61,-0.03660146836247635,5.349,1.228,-163.12
356743190017,356741190017,356.743190017,356.741190017,-0.023,0.091,0.996,0.183,-0.427,0.0,-0.034991690673049386,5.35,1.223,-163.127
356753450431,356751450431,356.753450431,356.751450431,-0.023,0.091,0.996,0.183,-0.427,-0.61,-0.033825453680344515,5.351,1.22,-163.134
356763456516,356761456516,356.763456516,356.761456516,-0.023,0.091,0.996,0.244,-0.427,-0.61,-0.03301310552011866,5.352,1.216,-163.14
356773534350,356771534350,356.77353435,356.77153435,-0.022,0.09,0.996,0.244,-0.427,-0.61,-0.03244230307437714,5.354,1.213,-163.147
356783779598,356781779598,356.783779598,356.781779598,-0.022,0.09,0.996,0.244,-0.427,-0.61,-0.03204264372872273,5.355,1.209,-163.153
356793715975,356791715975,356.793715975,356.791715975,-0.022,0.09,0.996,0.244,-0.366,-0.61,-0.031776577191821025,5.355,1.205,-163.16
356803838433,356801838433,356.803838433,356.801838433,-0.021,0.09,0.996,0.244,-0.366,-0.61,-0.03160071116512085,5.357,1.201,-163.166
356813916558,356811916558,356.813916558,356.811916558,-0.022,0.09,0.996,0.244,-0.366,-0.61,-0.031492333267434884,5.358,1.198,-163.173
356823964059,356821964059,356.823964059,356.821964059,-0.022,0.09,0.996,0.244,-0.366,-0.61,-0.031432193732704256,5.359,1.195,-163.179
356834113350,356832113350,356.83411335,356.83211335,-0.021,0.09,0.996,0.244,-0.305,-0.61,-0.03140711176267477,5.36,1.192,-163.186
356844168434,356842168434,356.844168434,356.842168434,-0.021,0.09,0.996,0.244,-0.305,-0.61,-0.03140775421191507,5.361,1.189,-163.193
356854201643,356852201643,356.854201643,356.852201643,-0.021,0.09,0.996,0.244,-0.305,0.0,-0.029746606243103012,5.363,1.186,-163.199
356864250019,356862250019,356.864250019,356.862250019,-0.022,0.09,0.996,0.244,-0.305,-0.61,-0.028559194391998992,5.364,1.183,-163.206
356874480101,356872480101,356.874480101,356.872480101,-0.022,0.09,0.996,0.305,-0.244,-0.61,-0.02770577977326101,5.365,1.181,-163.213
356884557643,356882557643,356.884557643,356.882557643,-0.022,0.09,0.996,0.305,-0.244,-0.671,-0.02728452282920016,5.367,1.179,-163.22
356894556728,356892556728,356.894556728,356.892556728,-0.022,0.09,0.996,0.305,-0.244,-0.671,-0.027165531510250234,5.368,1.177,-163.227
356904776893,356902776893,356.904776893,356.902776893,-0.021,0.09,0.997,0.305,-0.244,-0.671,-0.02727070914605986,5.369,1.175,-163.233
356914863768,356912863768,356.914863768,356.912863768,-0.021,0.09,0.997,0.305,-0.244,-0.671,-0.027531479603498544,5.371,1.172,-163.24
356925096183,356923096183,356.925096183,356.923096183,-0.021,0.09,0.997,0.305,-0.183,-0.671,-0.02791719894705151,5.372,1.17,-163.247
356934981811,356932981811,356.934981811,356.932981811,-0.021,0.09,0.997,0.305,-0.183,-0.671,-0.028369296136812536,5.373,1.169,-163.254
356945159977,356943159977,356.945159977,356.943159977,-0.021,0.09,0.997,0.305,-0.183,-0.671,-0.028901466300989706,5.374,1.167,-163.261
356955291768,356953291768,356.955291768,356.953291768,-0.021,0.09,0.997,0.305,-0.122,-0.671,-0.029466926552610708,5.375,1.166,-163.268
356965222312,356963222312,356.965222312,356.963222312,-0.021,0.09,0.997,0.305,-0.122,-0.671,-0.0300605782891848,5.377,1.164,-163.275
356975426727,356973426727,356.975426727,356.973426727,-0.021,0.09,0.997,0.305,-0.122,-0.671,-0.03069067189601652,5.378,1.163,-163.282
356985469270,356983469270,356.98546927,356.98346927,-0.021,0.09,0.997,0.305,-0.061,-0.671,-0.03132698902652315,5.379,1.162,-163.289
356995597853,356993597853,356.995597853,356.993597853,-0.021,0.09,0.997,0.305,-0.061,-0.671,-0.0319763926641367,5.38,1.162,-163.296
357005625521,357003625521,357.005625521,357.003625521,-0.021,0.09,0.997,0.305,-0.061,-0.671,-0.032632681485663,5.381,1.161,-163.303
357015827311,357013827311,357.015827311,357.013827311,-0.021,0.09,0.997,0.305,-0.061,-0.671,-0.033307525234707626,5.382,1.161,-163.31
357025862854,357023862854,357.025862854,357.023862854,-0.021,0.09,0.997,0.305,0.0,-0.671,-0.033975549795157614,5.383,1.161,-163.317
357035866605,357033866605,357.035866605,357.033866605,-0.021,0.09,0.997,0.305,0.0,-0.671,-0.034645047903149026,5.384,1.161,-163.324
357046087937,357044087937,357.046087937,357.044087937,-0.021,0.09,0.996,0.305,0.0,-0.671,-0.035332669202666665,5.385,1.161,-163.331
357056153812,357054153812,357.056153812,357.054153812,-0.021,0.09,0.996,0.305,0.0,-0.671,-0.03600941157228126,5.386,1.161,-163.338
357066185563,357064185563,357.066185563,357.064185563,-0.021,0.09,0.997,0.305,0.0,0.0,-0.03483780370967603,5.387,1.161,-163.345
357076300146,357074300146,357.076300146,357.074300146,-0.021,0.09,0.996,0.305,0.0,-0.671,-0.03417387735207574,5.388,1.162,-163.353
357086441563,357084441563,357.086441563,357.084441563,-0.021,0.09,0.997,0.305,0.0,-0.671,-0.03387866534085817,5.389,1.162,-163.36
357096522896,357094522896,357.096522896,357.094522896,-0.021,0.09,0.997,0.244,0.061,-0.671,-0.03385489431812262,5.39,1.163,-163.367
357106592563,357104592563,357.106592563,357.104592563,-0.021,0.09,0.997,0.244,0.061,-0.671,-0.034024603863949815,5.39,1.164,-163.374
357116759354,357114759354,357.116759354,357.114759354,-0.021,0.09,0.996,0.244,0.061,-0.671,-0.03434179549040688,5.391,1.165,-163.381
357126752897,357124752897,357.126752897,357.124752897,-0.021,0.09,0.997,0.244,0.061,-0.671,-0.03475203897972818,5.392,1.166,-163.389
357137030812,357135030812,357.137030812,357.135030812,-0.021,0.09,0.997,0.244,0.122,-0.671,-0.0352500384028425,5.393,1.167,-163.396
357147041855,357145041855,357.147041855,357.145041855,-0.021,0.09,0.997,0.244,0.122,-0.671,-0.03578870912587824,5.393,1.169,-163.403
357157125230,357155125230,357.15712523,357.15512523,-0.021,0.09,0.996,0.244,0.122,-0.671,-0.036369811486460915,5.394,1.171,-163.41
357167149398,357165149398,357.167149398,357.165149398,-0.021,0.09,0.996,0.244,0.122,0.0,-0.03513053463524353,5.395,1.172,-163.418
357177399604,357175399604,357.177399604,357.175399604,-0.021,0.09,0.996,0.244,0.183,-0.671,-0.034409885283253706,5.395,1.174,-163.426
357187382064,357185382064,357.187382064,357.185382064,-0.021,0.09,0.996,0.244,0.183,-0.671,-0.03408477094570488,5.396,1.176,-163.433
357197512689,357195512689,357.197512689,357.195512689,-0.021,0.09,0.996,0.244,0.183,-0.671,-0.034034901327038375,5.396,1.178,-163.44
357207543856,357205543856,357.207543856,357.205543856,-0.021,0.09,0.996,0.244,0.183,-0.671,-0.034186159362072796,5.397,1.181,-163.448
357217617023,357215617023,357.217617023,357.215617023,-0.021,0.09,0.996,0.244,0.244,-0.671,-0.03448204184953489,5.397,1.183,-163.455
357227815897,357225815897,357.227815897,357.225815897,-0.021,0.09,0.996,0.244,0.244,-0.732,-0.03506583332785931,5.397,1.186,-163.462
357237893148,357235893148,357.237893148,357.235893148,-0.021,0.09,0.996,0.244,0.244,-0.732,-0.03583708329064462,5.398,1.188,-163.47
357247889899,357245889899,357.247889899,357.245889899,-0.021,0.09,0.996,0.244,0.244,-0.732,-0.03675238273257173,5.398,1.191,-163.477
357258111231,357256111231,357.258111231,357.256111231,-0.021,0.09,0.996,0.244,0.244,-0.732,-0.03778937433639325,5.398,1.194,-163.484
357268279772,357266279772,357.268279772,357.266279772,-0.021,0.09,0.996,0.183,0.305,-0.732,-0.03889999464187035,5.398,1.197,-163.493
357278829808,357276829808,357.278829808,357.276829808,-0.021,0.09,0.996,0.183,0.305,-0.732,-0.04010971137187028,5.398,1.2,-163.5
357289271929,357287271929,357.289271929,357.287271929,-0.021,0.09,0.996,0.183,0.305,-0.732,-0.04134816991000381,5.398,1.203,-163.508
357299643759,357297643759,357.299643759,357.297643759,-0.021,0.09,0.996,0.183,0.305,-0.732,-0.04260798147275024,5.399,1.206,-163.516
357310169295,357308169295,357.310169295,357.308169295,-0.021,0.09,0.996,0.183,0.305,-0.732,-0.04390839550679224,5.399,1.209,-163.523
357320611416,357318611416,357.320611416,357.318611416,-0.021,0.09,0.996,0.183,0.305,-0.732,-0.04521126684136692,5.399,1.213,-163.531
357331025246,357329025246,357.331025246,357.329025246,-0.021,0.09,0.996,0.183,0.305,-0.732,-0.046525491510582606,5.399,1.216,-163.539
357341386576,357339386576,357.341386576,357.339386576,-0.021,0.09,0.996,0.183,0.305,-0.732,-0.04784008941675398,5.399,1.22,-163.547
357351771239,357349771239,357.351771239,357.349771239,-0.021,0.09,0.996,0.183,0.366,-0.732,-0.04916096181005284,5.399,1.223,-163.554
357362201693,357360201693,357.362201693,357.360201693,-0.021,0.09,0.996,0.183,0.366,0.0,-0.048337256397015464,5.399,1.227,-163.562
357372636523,357370636523,357.372636523,357.370636523,-0.021,0.09,0.996,0.183,0.366,-0.732,-0.04812380926706237,5.399,1.23,-163.57
357383119768,357381119768,357.383119768,357.381119768,-0.021,0.09,0.996,0.183,0.366,-0.732,-0.04835487202777627,5.398,1.234,-163.577
357393511723,357391511723,357.393511723,357.391511723,-0.021,0.09,0.996,0.183,0.366,-0.732,-0.04889148907621093,5.398,1.238,-163.586
357403909511,357401909511,357.403909511,357.401909511,-0.021,0.09,0.996,0.183,0.366,-0.732,-0.049653946036628926,5.398,1.241,-163.593
357414270549,357412270549,357.414270549,357.412270549,-0.021,0.09,0.995,0.183,0.366,-0.732,-0.05058282937006308,5.398,1.245,-163.601
357424610588,357422610588,357.424610588,357.422610588,-0.021,0.09,0.995,0.122,0.366,-0.732,-0.051618908073774124,5.397,1.248,-163.609
357435220124,357433220124,357.435220124,357.433220124,-0.021,0.09,0.995,0.122,0.366,-0.732,-0.05276802651695282,5.397,1.252,-163.616
357445598662,357443598662,357.445598662,357.443598662,-0.021,0.09,0.995,0.122,0.305,-0.732,-0.053951821624066296,5.397,1.256,-163.624
357455981867,357453981867,357.455981867,357.453981867,-0.021,0.09,0.995,0.122,0.366,-0.732,-0.05517963476195252,5.397,1.259,-163.632
357466372947,357464372947,357.466372947,357.464372947,-0.021,0.09,0.995,0.0,0.0,-0.732,-0.05643786547151847,5.395,1.259,-163.64
357476939316,357474939316,357.476939316,357.474939316,-0.021,0.09,0.995,0.0,0.0,-0.732,-0.057740994397264475,5.393,1.259,-163.647
357487314646,357485314646,357.487314646,357.485314646,-0.021,0.09,0.995,0.0,0.0,-0.732,-0.059036178852319196,5.391,1.259,-163.656
357497874890,357495874890,357.49787489,357.49587489,-0.021,0.09,0.995,0.0,0.0,-0.732,-0.060365544670515026,5.389,1.258,-163.663
357508276178,357506276178,357.508276178,357.506276178,-0.021,0.09,0.995,0.0,0.0,0.0,-0.05953782029358278,5.387,1.258,-163.671
357518599301,357516599301,357.518599301,357.516599301,-0.021,0.09,0.995,0.0,0.0,-0.732,-0.05931893249818923,5.385,1.258,-163.679
357529011672,357527011672,357.529011672,357.527011672,-0.021,0.09,0.995,0.0,0.0,-0.732,-0.059538240103732036,5.383,1.257,-163.686
357539390210,357537390210,357.53939021,357.53739021,-0.022,0.091,0.995,0.0,0.0,-0.732,-0.06007081321026856,5.381,1.257,-163.694
357549887747,357547887747,357.549887747,357.547887747,-0.022,0.091,0.995,0.0,0.0,-0.732,-0.06084006003985778,5.38,1.257,-163.702
357560405992,357558405992,357.560405992,357.558405992,-0.022,0.091,0.995,0.0,0.0,-0.732,-0.06176914511737395,5.378,1.258,-163.71
357570713656,357568713656,357.570713656,357.568713656,-0.022,0.091,0.995,0.0,0.0,-0.671,-0.0626305152378132,5.376,1.258,-163.717
357581109402,357579109402,357.581109402,357.579109402,-0.022,0.091,0.995,0.0,0.0,-0.671,-0.06344810831774342,5.375,1.258,-163.725
357591521482,357589521482,357.591521482,357.589521482,-0.022,0.091,0.995,0.0,0.0,-0.671,-0.0642341963528779,5.373,1.258,-163.733
357602046435,357600046435,357.602046435,357.600046435,-0.022,0.091,0.995,0.0,0.0,-0.671,-0.0650073497281771,5.371,1.258,-163.74
357612502264,357610502264,357.612502264,357.610502264,-0.022,0.091,0.995,0.0,0.0,-0.671,-0.0657557009946611,5.37,1.258,-163.748
357622883427,357620883427,357.622883427,357.620883427,-0.022,0.091,0.995,0.0,0.0,-0.671,-0.06648963625136939,5.368,1.258,-163.755
357633205383,357631205383,357.633205383,357.631205383,-0.022,0.091,0.995,0.0,0.0,-0.671,-0.06721086197065973,5.367,1.259,-163.762
357643668212,357641668212,357.643668212,357.641668212,-0.022,0.091,0.995,0.0,0.0,-0.671,-0.06793405067270494,5.365,1.259,-163.77
357654082917,357652082917,357.654082917,357.652082917,-0.022,0.091,0.995,0.0,0.0,-0.671,-0.0686510951209823,5.364,1.259,-163.778
357664506954,357662506954,357.664506954,357.662506954,-0.023,0.091,0.995,0.0,0.0,-0.671,-0.06936018739762358,5.362,1.259,-163.786
357674702328,357672702328,357.674702328,357.672702328,-0.023,0.091,0.995,0.0,0.0,-0.732,-0.0702289265671459,5.361,1.26,-163.793
357685011742,357683011742,357.685011742,357.683011742,-0.023,0.091,0.995,0.0,0.0,-0.732,-0.07124042723253043,5.36,1.26,-163.8
357695574612,357693574612,357.695574612,357.693574612,-0.023,0.091,0.995,0.0,0.0,-0.732,-0.0723638980118129,5.358,1.261,-163.808
357705969775,357703969775,357.705969775,357.703969775,-0.023,0.091,0.995,0.0,0.0,-0.671,-0.07335632982990213,5.357,1.261,-163.816
357716363188,357714363188,357.716363188,357.714363188,-0.023,0.091,0.995,0.0,0.0,-0.671,-0.07426739713078798,5.355,1.262,-163.824
357726769726,357724769726,357.726769726,357.724769726,-0.023,0.091,0.995,0.0,0.0,-0.671,-0.0751160491764514,5.354,1.262,-163.831
357737180639,357735180639,357.737180639,357.735180639,-0.023,0.091,0.995,0.0,0.0,-0.671,-0.07592969890806679,5.353,1.263,-163.838
357747519803,357745519803,357.747519803,357.745519803,-0.023,0.091,0.995,0.0,0.0,-0.671,-0.07670979094732006,5.352,1.263,-163.846
357757916132,357755916132,357.757916132,357.755916132,-0.023,0.091,0.995,0.0,0.0,-0.671,-0.07746910613017403,5.351,1.264,-163.853
357768289129,357766289129,357.768289129,357.766289129,-0.023,0.091,0.995,0.0,0.0,-0.671,-0.07821028183782806,5.349,1.265,-163.861
357778654834,357776654834,357.778654834,357.776654834,-0.023,0.091,0.995,0.0,0.0,-0.671,-0.07894021259913434,5.348,1.265,-163.868
357789101038,357787101038,357.789101038,357.787101038,-0.023,0.091,0.995,0.0,0.0,-0.671,-0.0796675484831458,5.347,1.266,-163.875
357799538201,357797538201,357.799538201,357.797538201,-0.023,0.091,0.995,0.0,0.0,-0.671,-0.08038562705090034,5.346,1.266,-163.883
357810072487,357808072487,357.810072487,357.808072487,-0.023,0.091,0.995,0.0,0.0,-0.671,-0.08111383777346981,5.345,1.267,-163.89
357820484858,357818484858,357.820484858,357.818484858,-0.023,0.091,0.995,0.0,0.0,-0.671,-0.08182274877530367,5.343,1.268,-163.897
357830809731,357828809731,357.830809731,357.828809731,-0.023,0.091,0.995,0.0,0.0,-0.671,-0.08253191000637126,5.342,1.269,-163.904
357841255060,357839255060,357.84125506,357.83925506,-0.023,0.091,0.995,0.0,0.0,0.0,-0.08128152630130055,5.341,1.27,-163.911
357851574099,357849574099,357.851574099,357.849574099,-0.023,0.091,0.995,0.0,0.0,-0.671,-0.08057963915088347,5.34,1.271,-163.919
357862026136,357860026136,357.862026136,357.860026136,-0.023,0.091,0.995,0.0,0.0,-0.671,-0.08027323063297709,5.339,1.271,-163.926
357872379883,357870379883,357.872379883,357.870379883,-0.023,0.091,0.995,0.0,0.0,-0.671,-0.08025025311782621,5.338,1.272,-163.933
357882687256,357880687256,357.882687256,357.880687256,-0.023,0.091,0.995,0.0,0.0,-0.671,-0.08043130609810273,5.337,1.273,-163.94
357893076294,357891076294,357.893076294,357.891076294,-0.023,0.091,0.995,0.0,-0.122,-0.671,-0.0807595181883146,5.336,1.273,-163.947
357903516373,357901516373,357.903516373,357.901516373,-0.023,0.091,0.995,0.0,-0.183,-0.671,-0.08119540469709885,5.334,1.272,-163.954
357914020326,357912020326,357.914020326,357.912020326,-0.023,0.091,0.995,0.0,-0.183,-0.671,-0.08171185709300446,5.333,1.27,-163.961
357924375532,357922375532,357.924375532,357.922375532,-0.024,0.091,0.996,0.0,-0.183,-0.671,-0.0822744477569629,5.331,1.269,-163.969
357934854694,357932854694,357.934854694,357.932854694,-0.024,0.091,0.996,0.0,-0.244,-0.671,-0.08288036325226365,5.33,1.267,-163.975
357945254815,357943254815,357.945254815,357.943254815,-0.024,0.091,0.996,0.0,-0.244,-0.671,-0.0835121285174374,5.328,1.266,-163.982
357955575604,357953575604,357.955575604,357.953575604,-0.024,0.091,0.996,0.0,-0.244,-0.671,-0.08416458342816037,5.327,1.264,-163.99
357966013642,357964013642,357.966013642,357.964013642,-0.024,0.091,0.996,0.0,-0.305,-0.671,-0.0848343081524221,5.325,1.262,-163.996
357976517303,357974517303,357.976517303,357.974517303,-0.024,0.091,0.996,0.0,-0.305,-0.671,-0.08551874486041217,5.324,1.259,-164.004
357986925008,357984925008,357.986925008,357.984925008,-0.024,0.091,0.996,0.0,-0.305,-0.671,-0.08620018711267874,5.323,1.257,-164.011
357997296838,357995296838,357.997296838,357.995296838,-0.024,0.091,0.996,0.0,-0.305,0.0,-0.0849159438755248,5.321,1.255,-164.017
358007661960,358005661960,358.00766196,358.00566196,-0.024,0.091,0.996,0.0,-0.366,-0.61,-0.08402040103039335,5.32,1.252,-164.025
358018093581,358016093581,358.018093581,358.016093581,-0.024,0.091,0.996,0.0,-0.366,-0.61,-0.08339272596710175,5.319,1.25,-164.031
358028409703,358026409703,358.028409703,358.026409703,-0.024,0.091,0.996,0.0,-0.366,-0.61,-0.08296147150668329,5.318,1.247,-164.038
358039011655,358037011655,358.039011655,358.037011655,-0.024,0.091,0.996,0.0,-0.366,-0.61,-0.08266741658130707,5.317,1.244,-164.045
358049472151,358047472151,358.049472151,358.047472151,-0.024,0.09,0.996,0.0,-0.427,-0.61,-0.08247998323794443,5.316,1.24,-164.052
358059792648,358057792648,358.059792648,358.057792648,-0.024,0.09,0.996,0.0,-0.427,-0.61,-0.08236487818978931,5.315,1.237,-164.059
358070356684,358068356684,358.070356684,358.068356684,-0.024,0.09,0.996,0.0,-0.427,-0.61,-0.08230139340665774,5.314,1.234,-164.066
358080737848,358078737848,358.080737848,358.078737848,-0.024,0.09,0.996,0.061,-0.427,-0.61,-0.08227612873312681,5.313,1.23,-164.072
358091145261,358089145261,358.091145261,358.089145261,-0.024,0.09,0.996,0.061,-0.427,0.0,-0.08048837798195438,5.312,1.226,-164.079
358101519716,358099519716,358.101519716,358.099519716,-0.024,0.09,0.996,0.061,-0.488,-0.61,-0.07922680172310347,5.312,1.223,-164.086
358111944920,358109944920,358.11194492,358.10994492,-0.024,0.09,0.996,0.061,-0.488,-0.61,-0.078339002193405,5.312,1.22,-164.092
358122248209,358120248209,358.122248209,358.120248209,-0.024,0.09,0.996,0.122,-0.488,-0.61,-0.07772248439822693,5.311,1.216,-164.099
358132796495,358130796495,358.132796495,358.130796495,-0.024,0.09,0.996,0.122,-0.488,-0.61,-0.07729265174762506,5.311,1.212,-164.105
358143233366,358141233366,358.143233366,358.141233366,-0.024,0.09,0.996,0.122,-0.488,0.0,-0.0752093781186711,5.312,1.208,-164.112
358153630571,358151630571,358.153630571,358.151630571,-0.024,0.09,0.996,0.122,-0.488,-0.61,-0.07373832530809726,5.312,1.204,-164.119
358164091942,358162091942,358.164091942,358.162091942,-0.024,0.09,0.996,0.183,-0.488,-0.61,-0.07270178247561929,5.312,1.201,-164.125
358174399898,358172399898,358.174399898,358.172399898,-0.023,0.089,0.996,0.183,-0.488,-0.61,-0.07197650969134228,5.313,1.197,-164.132
358185014391,358183014391,358.185014391,358.183014391,-0.023,0.089,0.996,0.244,-0.488,-0.61,-0.07146748425667088,5.314,1.193,-164.139
358195355597,358193355597,358.195355597,358.193355597,-0.023,0.089,0.996,0.244,-0.488,-0.61,-0.07113013017105581,5.315,1.189,-164.146
358205600262,358203600262,358.205600262,358.203600262,-0.023,0.089,0.996,0.244,-0.488,-0.61,-0.07090808516734437,5.315,1.186,-164.152
358216054049,358214054049,358.216054049,358.214054049,-0.023,0.089,0.996,0.244,-0.488,-0.61,-0.07076551258549577,5.316,1.182,-164.158
358226511045,358224511045,358.226511045,358.224511045,-0.023,0.089,0.996,0.305,-0.488,-0.61,-0.07068298729966072,5.318,1.178,-164.165
358236886958,358234886958,358.236886958,358.234886958,-0.023,0.089,0.996,0.305,-0.488,-0.61,-0.07064373595286956,5.319,1.175,-164.172
358247323537,358245323537,358.247323537,358.245323537,-0.023,0.089,0.996,0.366,-0.488,-0.61,-0.07063516729531603,5.321,1.171,-164.179
358257665618,358255665618,358.257665618,358.255665618,-0.023,0.089,0.996,0.366,-0.488,-0.61,-0.07064853932076055,5.323,1.167,-164.185
358268154113,358266154113,358.268154113,358.266154113,-0.023,0.089,0.996,0.366,-0.488,-0.61,-0.07067795159570345,5.325,1.164,-164.191
358278624817,358276624817,358.278624817,358.276624817,-0.023,0.089,0.996,0.427,-0.488,-0.61,-0.0707192772009679,5.328,1.161,-164.198
358289053229,358287053229,358.289053229,358.287053229,-0.023,0.089,0.996,0.427,-0.488,-0.61,-0.07076841577732741,5.33,1.158,-164.205
358299642348,358297642348,358.299642348,358.297642348,-0.022,0.088,0.996,0.488,-0.427,-0.61,-0.07082399607905579,5.333,1.154,-164.212
358309822556,358307822556,358.309822556,358.307822556,-0.022,0.088,0.996,0.488,-0.427,-0.61,-0.07088218720992943,5.336,1.151,-164.218
358320180678,358318180678,358.320180678,358.318180678,-0.022,0.088,0.996,0.488,-0.427,0.0,-0.06917241623040685,5.339,1.148,-164.224
358330773880,358328773880,358.33077388,358.32877388,-0.022,0.088,0.996,0.488,-0.427,-0.61,-0.0679417491706651,5.342,1.145,-164.232
358341171668,358339171668,358.341171668,358.339171668,-0.022,0.088,0.996,0.549,-0.427,-0.61,-0.0670940466893393,5.345,1.142,-164.238
358351559540,358349559540,358.35155954,358.34955954,-0.022,0.088,0.996,0.549,-0.366,-0.61,-0.06650468923798514,5.348,1.139,-164.245
358361956161,358359956161,358.361956161,358.359956161,-0.022,0.088,0.996,0.549,-0.366,-0.61,-0.06610097565252011,5.351,1.137,-164.251
358372271408,358370271408,358.372271408,358.370271408,-0.022,0.088,0.996,0.61,-0.366,-0.61,-0.06583150620532913,5.355,1.134,-164.258
358382723737,358380723737,358.382723737,358.380723737,-0.022,0.088,0.996,0.61,-0.366,-0.61,-0.0656564197149622,5.359,1.132,-164.265
358393151858,358391151858,358.393151858,358.391151858,-0.022,0.088,0.996,0.61,-0.305,-0.61,-0.06554981180752827,5.362,1.13,-164.271
358403501814,358401501814,358.403501814,358.401501814,-0.022,0.088,0.996,0.61,-0.305,-0.61,-0.06549323079325198,5.367,1.128,-164.278
358414117766,358412117766,358.414117766,358.412117766,-0.022,0.088,0.996,0.671,-0.244,-0.61,-0.06547227186608653,5.37,1.127,-164.285
358424376431,358422376431,358.424376431,358.422376431,-0.021,0.088,0.995,0.671,-0.244,-0.61,-0.06547695020520615,5.375,1.126,-164.292
358434807468,358432807468,358.434807468,358.432807468,-0.021,0.088,0.995,0.671,-0.244,-0.61,-0.06550009615986023,5.379,1.124,-164.299
358445202048,358443202048,358.445202048,358.443202048,-0.021,0.088,0.995,0.671,-0.183,-0.61,-0.06553624242399589,5.383,1.123,-164.305
358455571836,358453571836,358.455571836,358.453571836,-0.021,0.088,0.995,0.671,-0.183,-0.61,-0.06558182868874753,5.387,1.122,-164.313
358466139372,358464139372,358.466139372,358.464139372,-0.021,0.088,0.995,0.671,-0.122,-0.671,-0.06581883993317295,5.391,1.121,-164.319
358476544160,358474544160,358.47654416,358.47454416,-0.021,0.088,0.995,0.671,-0.122,-0.671,-0.06618474774494579,5.396,1.12,-164.327
358486901699,358484901699,358.486901699,358.484901699,-0.021,0.088,0.995,0.671,-0.122,-0.671,-0.06664375254392094,5.4,1.12,-164.333
358497316403,358495316403,358.497316403,358.495316403,-0.021,0.088,0.995,0.732,-0.061,-0.671,-0.06717110207041117,5.405,1.12,-164.341
358507761733,358505761733,358.507761733,358.505761733,-0.021,0.088,0.995,0.732,-0.061,-0.671,-0.06775132029772092,5.409,1.12,-164.348
358518316144,358516316144,358.518316144,358.516316144,-0.021,0.088,0.995,0.732,0.0,-0.671,-0.06837481813765227,5.413,1.12,-164.354
358528635183,358526635183,358.528635183,358.526635183,-0.021,0.088,0.995,0.732,0.0,-0.671,-0.0690138727374312,5.417,1.121,-164.362
358539059220,358537059220,358.53905922,358.53705922,-0.021,0.088,0.995,0.671,0.0,-0.671,-0.06967263143806725,5.421,1.122,-164.369
358549577174,358547577174,358.549577174,358.547577174,-0.021,0.088,0.995,0.671,0.0,-0.671,-0.07035163464411529,5.425,1.124,-164.377
358559993920,358557993920,358.55999392,358.55799392,-0.02,0.089,0.995,0.671,0.061,-0.671,-0.07103102416602766,5.429,1.125,-164.384
358570419708,358568419708,358.570419708,358.568419708,-0.02,0.089,0.995,0.671,0.061,-0.671,-0.07171730430010873,5.434,1.126,-164.391
358580769080,358578769080,358.58076908,358.57876908,-0.02,0.089,0.995,0.671,0.122,-0.671,-0.07240825794041966,5.437,1.128,-164.398
358591302199,358589302199,358.591302199,358.589302199,-0.02,0.089,0.995,0.671,0.122,0.0,-0.07109463768165,5.442,1.129,-164.405
358601686863,358599686863,358.601686863,358.599686863,-0.02,0.089,0.995,0.61,0.122,-0.671,-0.07036476361374062,5.445,1.131,-164.413
358612060443,358610060443,358.612060443,358.610060443,-0.02,0.089,0.995,0.61,0.183,-0.671,-0.07003831815888178,5.448,1.133,-164.421
358622621270,358620621270,358.62262127,358.62062127,-0.02,0.089,0.995,0.61,0.183,-0.671,-0.07000392891356061,5.452,1.136,-164.429
358633052308,358631052308,358.633052308,358.631052308,-0.02,0.089,0.995,0.61,0.244,-0.671,-0.07017899699315175,5.455,1.139,-164.436
358643511929,358641511929,358.643511929,358.641511929,-0.02,0.089,0.995,0.549,0.244,-0.671,-0.07050263440733859,5.458,1.142,-164.444
358653946174,358651946174,358.653946174,358.651946174,-0.02,0.089,0.995,0.549,0.305,-0.671,-0.07093829677512682,5.46,1.145,-164.451
358664175673,358662175673,358.664175673,358.662175673,-0.02,0.089,0.995,0.488,0.305,0.0,-0.06952706427590129,5.463,1.149,-164.458
358674552170,358672552170,358.67455217,358.67255217,-0.02,0.089,0.995,0.488,0.366,-0.732,-0.06887365530617434,5.465,1.153,-164.466
358685129330,358683129330,358.68512933,358.68312933,-0.019,0.091,0.995,0.488,0.366,-0.732,-0.06878529609326277,5.467,1.156,-164.474
358695503494,358693503494,358.695503494,358.693503494,-0.019,0.091,0.995,0.427,0.427,-0.732,-0.06909862323041582,5.469,1.16,-164.482
358705900699,358703900699,358.705900699,358.703900699,-0.019,0.091,0.995,0.427,0.427,-0.732,-0.06969952637967164,5.471,1.164,-164.489
358716296737,358714296737,358.716296737,358.714296737,-0.019,0.091,0.995,0.366,0.427,0.0,-0.06836182119986471,5.473,1.169,-164.497
358726659525,358724659525,358.726659525,358.724659525,-0.019,0.091,0.995,0.366,0.488,-0.732,-0.06777921402012148,5.474,1.173,-164.505
358737077146,358735077146,358.737077146,358.735077146,-0.019,0.091,0.995,0.305,0.488,-0.732,-0.06773447365579374,5.475,1.177,-164.513
358747537642,358745537642,358.747537642,358.745537642,-0.019,0.091,0.995,0.305,0.488,-0.732,-0.06807913214985863,5.476,1.182,-164.521
358757971888,358755971888,358.757971888,358.755971888,-0.019,0.091,0.995,0.244,0.549,-0.732,-0.06870180623090359,5.477,1.187,-164.529
358768400300,358766400300,358.7684003,358.7664003,-0.019,0.091,0.995,0.244,0.549,-0.732,-0.0695140188767269,5.477,1.192,-164.536
358778624549,358776624549,358.778624549,358.776624549,-0.019,0.091,0.995,0.183,0.549,0.0,-0.06838794617588836,5.476,1.197,-164.544
358788957296,358786957296,358.788957296,358.786957296,-0.019,0.091,0.995,0.183,0.61,-0.732,-0.06794041952611501,5.476,1.202,-164.552
358798919340,358796919340,358.79891934,358.79691934,-0.019,0.091,0.995,0.122,0.61,-0.732,-0.06798216015102018,5.475,1.207,-164.56
358809084089,358807084089,358.809084089,358.807084089,-0.019,0.092,0.995,0.061,0.61,-0.732,-0.06837634085054572,5.474,1.212,-164.568
358819724832,358817724832,358.819724832,358.817724832,-0.019,0.092,0.995,0.061,0.61,0.0,-0.06689959286003276,5.473,1.218,-164.575
358830517824,358828517824,358.830517824,358.828517824,-0.019,0.092,0.995,0.0,0.61,-0.732,-0.06621430526567927,5.472,1.224,-164.584
358842528800,358840528800,358.8425288,358.8405288,-0.019,0.092,0.995,0.0,0.61,-0.732,-0.06615977114709487,5.471,1.23,-164.593
358853191710,358851191710,358.85319171,358.85119171,-0.019,0.092,0.995,0.0,0.671,-0.732,-0.06651880946666937,5.469,1.236,-164.602
358863241252,358861241252,358.863241252,358.861241252,-0.019,0.092,0.995,0.0,0.671,-0.732,-0.0671469598829755,5.467,1.241,-164.609
358874059619,358872059619,358.874059619,358.872059619,-0.019,0.092,0.995,-0.061,0.671,-0.732,-0.06800249630354012,5.464,1.247,-164.618
358884079995,358882079995,358.884079995,358.882079995,-0.019,0.092,0.995,-0.061,0.671,-0.732,-0.0689567153475718,5.462,1.253,-164.626
358894309493,358892309493,358.894309493,358.892309493,-0.019,0.092,0.995,-0.122,0.671,-0.732,-0.07001173313602964,5.459,1.258,-164.633
358904627365,358902627365,358.904627365,358.902627365,-0.019,0.092,0.995,-0.122,0.671,-0.732,-0.07114117250987297,5.456,1.264,-164.641
358914914322,358912914322,358.914914322,358.912914322,-0.019,0.092,0.995,-0.183,0.671,-0.732,-0.07231723210838238,5.453,1.269,-164.65
358925339818,358923339818,358.925339818,358.923339818,-0.019,0.092,0.995,-0.183,0.671,-0.732,-0.07356456097180675,5.449,1.274,-164.657
358935514775,358933514775,358.935514775,358.933514775,-0.021,0.093,0.996,-0.183,0.671,-0.732,-0.07479933958973053,5.446,1.28,-164.665
358945611859,358943611859,358.945611859,358.943611859,-0.021,0.093,0.996,-0.244,0.61,-0.732,-0.07606785592198737,5.442,1.286,-164.673
358955992439,358953992439,358.955992439,358.953992439,-0.021,0.093,0.996,-0.244,0.61,-0.732,-0.07736974147958263,5.439,1.291,-164.681
358966370102,358964370102,358.966370102,358.964370102,-0.021,0.093,0.996,-0.305,0.61,-0.732,-0.07867709245666504,5.435,1.297,-164.689
358976774015,358974774015,358.976774015,358.974774015,-0.021,0.093,0.996,-0.305,0.61,0.0,-0.07789342270190833,5.43,1.302,-164.697
358987112012,358985112012,358.987112012,358.985112012,-0.021,0.093,0.996,-0.305,0.61,-0.732,-0.07769611245202165,5.426,1.307,-164.705
358997607507,358995607507,358.997607507,358.995607507,-0.021,0.093,0.996,-0.305,0.549,-0.732,-0.07794173100069822,5.422,1.312,-164.713
359007815423,359005815423,359.007815423,359.005815423,-0.021,0.093,0.996,-0.366,0.549,-0.732,-0.07847730436700176,5.417,1.317,-164.722
359018023046,359016023046,359.018023046,359.016023046,-0.021,0.093,0.996,-0.366,0.549,-0.732,-0.07924370768603048,5.413,1.322,-164.73
359028181671,359026181671,359.028181671,359.026181671,-0.021,0.093,0.996,-0.366,0.549,-0.732,-0.08014987839452298,5.408,1.326,-164.737
359038576250,359036576250,359.03857625,359.03657625,-0.021,0.093,0.996,-0.366,0.488,-0.732,-0.0811962206315758,5.403,1.33,-164.746
359049012246,359047012246,359.049012246,359.047012246,-0.021,0.093,0.996,-0.366,0.488,-0.732,-0.08232631642289871,5.399,1.334,-164.753
359060107109,359058107109,359.060107109,359.058107109,-0.023,0.093,0.996,-0.366,0.427,-0.732,-0.08357992422995422,5.394,1.338,-164.762
359072645996,359070645996,359.072645996,359.070645996,-0.023,0.093,0.996,-0.366,0.427,-0.732,-0.08481205918052911,5.389,1.342,-164.769
359082359542,359080359542,359.082359542,359.080359542,-0.023,0.093,0.996,-0.427,0.366,-0.732,-0.08626716233796548,5.383,1.347,-164.778
359092651457,359090651457,359.092651457,359.090651457,-0.023,0.093,0.996,-0.427,0.366,-0.732,-0.08752654894714926,5.378,1.351,-164.787
359102827289,359100827289,359.102827289,359.100827289,-0.023,0.093,0.996,-0.427,0.366,-0.671,-0.08861273507028852,5.373,1.354,-164.794
359112870415,359110870415,359.112870415,359.110870415,-0.023,0.093,0.996,-0.366,0.305,-0.732,-0.08977204910257586,5.369,1.357,-164.801
359123207829,359121207829,359.123207829,359.121207829,-0.023,0.093,0.996,-0.366,0.305,-0.732,-0.09097843347279139,5.364,1.36,-164.809
359133371411,359131371411,359.133371411,359.131371411,-0.023,0.093,0.996,-0.366,0.244,-0.732,-0.09223632137186309,5.36,1.362,-164.816
359143441662,359141441662,359.143441662,359.141441662,-0.023,0.093,0.996,-0.366,0.244,-0.671,-0.09332103689218423,5.355,1.365,-164.824
359154140154,359152140154,359.154140154,359.152140154,-0.023,0.093,0.996,-0.366,0.183,-0.671,-0.09431480146239622,5.351,1.366,-164.831
359164256488,359162256488,359.164256488,359.162256488,-0.023,0.093,0.996,-0.366,0.183,-0.671,-0.09520745414920098,5.347,1.368,-164.839
359174617234,359172617234,359.174617234,359.172617234,-0.023,0.093,0.996,-0.366,0.122,-0.671,-0.096059703974001,5.343,1.369,-164.847
359185061980,359183061980,359.18506198,359.18306198,-0.023,0.093,0.996,-0.305,0.061,-0.671,-0.09685998004768084,5.339,1.37,-164.854
359195317728,359193317728,359.195317728,359.193317728,-0.025,0.091,0.997,-0.305,0.061,-0.671,-0.09762999285721895,5.335,1.371,-164.861
359205456520,359203456520,359.20545652,359.20345652,-0.025,0.091,0.997,-0.305,0.0,-0.671,-0.09837565776156224,5.331,1.372,-164.868
359215715768,359213715768,359.215715768,359.213715768,-0.025,0.091,0.997,-0.244,0.0,-0.671,-0.09911972528233849,5.327,1.373,-164.876
359225980557,359223980557,359.225980557,359.223980557,-0.025,0.091,0.997,-0.244,0.0,-0.671,-0.09983908710522267,5.323,1.374,-164.883
359236089307,359234089307,359.236089307,359.234089307,-0.025,0.091,0.997,-0.244,0.0,-0.671,-0.1005509946415315,5.32,1.374,-164.89
359246481262,359244481262,359.246481262,359.244481262,-0.025,0.091,0.997,-0.183,-0.061,0.0,-0.0993058646610003,5.316,1.374,-164.897
359256771718,359254771718,359.256771718,359.254771718,-0.025,0.091,0.997,-0.183,-0.122,-0.671,-0.09861469556987756,5.313,1.373,-164.904
359266979634,359264979634,359.266979634,359.264979634,-0.025,0.091,0.997,-0.183,-0.122,-0.671,-0.0983081081856733,5.311,1.373,-164.911
359277277090,359275277090,359.27727709,359.27527709,-0.025,0.091,0.997,-0.122,-0.122,-0.671,-0.09828089277328637,5.308,1.371,-164.918
359287430172,359285430172,359.287430172,359.285430172,-0.025,0.091,0.997,-0.122,-0.183,0.0,-0.09656055519541214,5.306,1.37,-164.925
359297618546,359295618546,359.297618546,359.295618546,-0.025,0.091,0.997,-0.061,-0.183,-0.61,-0.09533314279039527,5.304,1.368,-164.932
359307969960,359305969960,359.30796996,359.30596996,-0.025,0.091,0.997,-0.061,-0.244,-0.61,-0.09445476460345638,5.303,1.367,-164.939
359318356081,359316356081,359.318356081,359.316356081,-0.026,0.089,0.997,0.0,-0.244,0.0,-0.09207524186825224,5.301,1.364,-164.945
359328537456,359326537456,359.328537456,359.326537456,-0.026,0.089,0.997,0.0,-0.305,-0.61,-0.09039680089698354,5.299,1.363,-164.952
359338750621,359336750621,359.338750621,359.336750621,-0.026,0.089,0.997,0.0,-0.305,-0.61,-0.08920551262290104,5.297,1.361,-164.959
359349193033,359347193033,359.349193033,359.347193033,-0.026,0.089,0.997,0.0,-0.366,-0.61,-0.0883503548236767,5.296,1.358,-164.965
359359214576,359357214576,359.359214576,359.357214576,-0.026,0.089,0.997,0.061,-0.366,-0.61,-0.08777325987826519,5.295,1.356,-164.972
359369615572,359367615572,359.369615572,359.367615572,-0.026,0.089,0.997,0.061,-0.427,-0.61,-0.08736335667761584,5.294,1.352,-164.979
359379829613,359377829613,359.379829613,359.377829613,-0.026,0.089,0.997,0.122,-0.427,-0.61,-0.0870913035639663,5.294,1.349,-164.985
359390061153,359388061153,359.390061153,359.388061153,-0.026,0.089,0.997,0.122,-0.488,-0.61,-0.08691446385814171,5.294,1.346,-164.991
359400226777,359398226777,359.400226777,359.398226777,-0.026,0.089,0.997,0.183,-0.488,-0.61,-0.08680540467768083,5.294,1.343,-164.998
359411031727,359409031727,359.411031727,359.409031727,-0.026,0.089,0.997,0.183,-0.488,0.0,-0.0849415588903707,5.294,1.339,-165.004
359421009228,359419009228,359.421009228,359.419009228,-0.026,0.089,0.997,0.183,-0.549,-0.61,-0.0836462430219748,5.295,1.335,-165.011
359431919177,359429919177,359.431919177,359.429919177,-0.026,0.089,0.997,0.244,-0.549,-0.61,-0.08271875880825388,5.296,1.331,-165.017
359442252799,359440252799,359.442252799,359.440252799,-0.026,0.088,0.996,0.244,-0.549,-0.61,-0.08207511461155385,5.297,1.326,-165.024
359452481131,359450481131,359.452481131,359.450481131,-0.026,0.088,0.996,0.305,-0.61,-0.61,-0.08161562203866587,5.298,1.322,-165.031
359462887377,359460887377,359.462887377,359.460887377,-0.026,0.088,0.996,0.305,-0.61,-0.61,-0.08131966289874469,5.299,1.317,-165.037
359473151292,359471151292,359.473151292,359.471151292,-0.026,0.088,0.996,0.366,-0.61,-0.61,-0.0811278592040919,5.3,1.312,-165.043
359483328291,359481328291,359.483328291,359.481328291,-0.026,0.088,0.996,0.366,-0.61,-0.61,-0.08100952518900337,5.302,1.307,-165.049
359493562748,359491562748,359.493562748,359.491562748,-0.026,0.088,0.996,0.366,-0.671,-0.61,-0.0809427653760899,5.303,1.302,-165.056
359503770955,359501770955,359.503770955,359.501770955,-0.026,0.088,0.996,0.427,-0.671,-0.549,-0.08074049481605305,5.305,1.297,-165.062
359514557238,359512557238,359.514557238,359.512557238,-0.026,0.088,0.996,0.427,-0.671,-0.549,-0.08042051933872088,5.307,1.291,-165.069
359524759029,359522759029,359.524759029,359.522759029,-0.026,0.088,0.996,0.427,-0.671,-0.549,-0.08004797627976588,5.309,1.286,-165.075
359534900736,359532900736,359.534900736,359.532900736,-0.026,0.088,0.996,0.488,-0.671,-0.549,-0.07962639825599259,5.312,1.281,-165.081
359545145985,359543145985,359.545145985,359.543145985,-0.026,0.088,0.996,0.488,-0.671,-0.549,-0.07916374413642806,5.314,1.276,-165.087
359555340484,359553340484,359.555340484,359.553340484,-0.026,0.088,0.996,0.488,-0.671,0.0,-0.07712286713210954,5.317,1.271,-165.093
359565512816,359563512816,359.565512816,359.563512816,-0.026,0.088,0.996,0.549,-0.671,-0.549,-0.07549867902673389,5.32,1.266,-165.1
359575795981,359573795981,359.575795981,359.573795981,-0.024,0.087,0.995,0.549,-0.671,-0.549,-0.07416000376123949,5.323,1.261,-165.106
359586178894,359584178894,359.586178894,359.584178894,-0.024,0.087,0.995,0.549,-0.671,-0.61,-0.07320847280526535,5.326,1.255,-165.112
359596401392,359594401392,359.596401392,359.594401392,-0.024,0.087,0.995,0.549,-0.671,-0.61,-0.07254988760928652,5.329,1.249,-165.118
359606642557,359604642557,359.606642557,359.604642557,-0.024,0.087,0.995,0.549,-0.671,-0.61,-0.07209609194998058,5.332,1.243,-165.125
359617116470,359615116470,359.61711647,359.61511647,-0.024,0.087,0.995,0.549,-0.61,-0.61,-0.07178176494336375,5.335,1.238,-165.131
359627292594,359625292594,359.627292594,359.625292594,-0.024,0.087,0.995,0.61,-0.61,-0.61,-0.07157817079432163,5.338,1.232,-165.137
359637500801,359635500801,359.637500801,359.635500801,-0.024,0.087,0.995,0.61,-0.61,-0.61,-0.0714503913189445,5.342,1.227,-165.144
359647674592,359645674592,359.647674592,359.645674592,-0.024,0.087,0.995,0.61,-0.61,-0.61,-0.07137718155570442,5.345,1.222,-165.15
359657921298,359655921298,359.657921298,359.655921298,-0.024,0.087,0.995,0.61,-0.61,-0.61,-0.07134344020717967,5.348,1.217,-165.156
359668077006,359666077006,359.668077006,359.666077006,-0.024,0.087,0.995,0.61,-0.61,-0.61,-0.0713381059062404,5.351,1.212,-165.163
359678289296,359676289296,359.678289296,359.676289296,-0.024,0.087,0.995,0.61,-0.549,-0.61,-0.07135331616771336,5.354,1.208,-165.169
359688549419,359686549419,359.688549419,359.686549419,-0.024,0.087,0.995,0.61,-0.549,-0.61,-0.07138354157995552,5.358,1.203,-165.175
359698690544,359696690544,359.698690544,359.696690544,-0.021,0.088,0.995,0.61,-0.549,-0.61,-0.07142393161628327,5.361,1.199,-165.182
359708983917,359706983917,359.708983917,359.706983917,-0.021,0.088,0.995,0.61,-0.488,-0.61,-0.07147283991958145,5.365,1.194,-165.188
359719190957,359717190957,359.719190957,359.717190957,-0.021,0.088,0.995,0.61,-0.488,-0.61,-0.07152688508436364,5.368,1.189,-165.194
359729531579,359727531579,359.729531579,359.727531579,-0.021,0.088,0.995,0.61,-0.488,-0.61,-0.07158573417306416,5.372,1.184,-165.201
359739831952,359737831952,359.739831952,359.737831952,-0.021,0.088,0.995,0.61,-0.427,-0.61,-0.07164719834523567,5.376,1.18,-165.207
359750026742,359748026742,359.750026742,359.748026742,-0.021,0.088,0.995,0.61,-0.427,-0.61,-0.07171022907953653,5.379,1.176,-165.214
359760227366,359758227366,359.760227366,359.758227366,-0.021,0.088,0.995,0.61,-0.427,-0.61,-0.07177481183358933,5.382,1.172,-165.22
359770449573,359768449573,359.770449573,359.768449573,-0.021,0.088,0.995,0.61,-0.366,-0.61,-0.07184059148592557,5.386,1.169,-165.226
359780833070,359778833070,359.78083307,359.77883307,-0.021,0.088,0.995,0.61,-0.366,-0.61,-0.07190820041954256,5.389,1.166,-165.234
359791056443,359789056443,359.791056443,359.789056443,-0.021,0.088,0.995,0.61,-0.305,-0.61,-0.07197534863553773,5.392,1.163,-165.24
359801438773,359799438773,359.801438773,359.799438773,-0.021,0.088,0.995,0.549,-0.305,-0.61,-0.07204391588042708,5.395,1.16,-165.247
359811595356,359809595356,359.811595356,359.809595356,-0.021,0.088,0.995,0.549,-0.244,-0.61,-0.0721113588784546,5.398,1.158,-165.254
359821826896,359819826896,359.821826896,359.819826896,-0.02,0.089,0.994,0.549,-0.244,-0.61,-0.07217941573980685,5.401,1.156,-165.26
359832037436,359830037436,359.832037436,359.830037436,-0.02,0.089,0.994,0.549,-0.183,-0.61,-0.07224755235864055,5.404,1.153,-165.267
359842312142,359840312142,359.842312142,359.840312142,-0.02,0.089,0.994,0.549,-0.183,-0.61,-0.07231619482062944,5.407,1.151,-165.274
359852517141,359850517141,359.852517141,359.850517141,-0.02,0.089,0.994,0.549,-0.122,-0.671,-0.07255746828454473,5.41,1.149,-165.281
359862781056,359860781056,359.862781056,359.860781056,-0.02,0.089,0.994,0.549,-0.122,-0.671,-0.07292388515915438,5.413,1.147,-165.288
359873217052,359871217052,359.873217052,359.871217052,-0.02,0.089,0.994,0.488,-0.061,-0.671,-0.07339139694124061,5.416,1.145,-165.295
359883295761,359881295761,359.883295761,359.881295761,-0.02,0.089,0.994,0.488,-0.061,0.0,-0.07204063194236249,5.419,1.144,-165.301
359893733798,359891733798,359.893733798,359.891733798,-0.02,0.089,0.994,0.488,0.0,-0.671,-0.07123860462023668,5.421,1.143,-165.309
359903911672,359901911672,359.903911672,359.901911672,-0.02,0.089,0.994,0.488,0.0,-0.671,-0.07086306809502191,5.424,1.142,-165.316
359914163629,359912163629,359.914163629,359.912163629,-0.02,0.089,0.994,0.488,0.0,-0.671,-0.07078513033205282,5.426,1.142,-165.323
359924339170,359922339170,359.92433917,359.92233917,-0.02,0.089,0.994,0.427,0.0,0.0,-0.0690219629975033,5.428,1.142,-165.33
359934562251,359932562251,359.934562251,359.932562251,-0.02,0.089,0.994,0.427,0.0,-0.671,-0.06794154197412161,5.43,1.142,-165.338
359944974914,359942974914,359.944974914,359.942974914,-0.02,0.089,0.994,0.427,0.061,-0.671,-0.0673452727031553,5.432,1.143,-165.345
359955198871,359953198871,359.955198871,359.953198871,-0.019,0.091,0.994,0.427,0.061,-0.671,-0.06711575962068381,5.434,1.143,-165.352
359965229455,359963229455,359.965229455,359.963229455,-0.019,0.091,0.994,0.427,0.122,-0.671,-0.06713970239744327,5.436,1.144,-165.359
359975458954,359973458954,359.975458954,359.973458954,-0.019,0.091,0.994,0.366,0.122,-0.671,-0.06734957784204022,5.439,1.145,-165.367
359985681161,359983681161,359.985681161,359.983681161,-0.019,0.091,0.994,0.366,0.183,-0.671,-0.06769430213406213,5.441,1.146,-165.374
359995886743,359993886743,359.995886743,359.993886743,-0.019,0.091,0.994,0.366,0.183,-0.671,-0.06813440879264017,5.442,1.147,-165.381
360006292698,360004292698,360.006292698,360.004292698,-0.019,0.091,0.994,0.366,0.183,-0.671,-0.06865509824727414,5.444,1.149,-165.388
360016500905,360014500905,360.016500905,360.014500905,-0.019,0.091,0.994,0.305,0.244,-0.671,-0.06921636376471431,5.446,1.151,-165.396
360026758986,360024758986,360.026758986,360.024758986,-0.019,0.091,0.994,0.305,0.244,-0.671,-0.06981481620520129,5.447,1.153,-165.403
360036847903,360034847903,360.036847903,360.034847903,-0.019,0.091,0.994,0.305,0.305,-0.671,-0.07043263051379296,5.448,1.155,-165.41
360047193192,360045193192,360.047193192,360.045193192,-0.019,0.091,0.994,0.305,0.305,-0.732,-0.07126102961721911,5.45,1.158,-165.418
360057572897,360055572897,360.057572897,360.055572897,-0.019,0.091,0.994,0.305,0.305,-0.732,-0.07222809083504789,5.451,1.16,-165.426
360067766812,360065766812,360.067766812,360.065766812,-0.019,0.091,0.994,0.244,0.366,-0.732,-0.07328757236417302,5.451,1.163,-165.433
360078014685,360076014685,360.078014685,360.076014685,-0.02,0.092,0.995,0.244,0.366,-0.732,-0.07441559271097337,5.452,1.166,-165.441
360088201601,360086201601,360.088201601,360.086201601,-0.02,0.092,0.995,0.244,0.366,-0.732,-0.07559697807858137,5.453,1.17,-165.448
360098434308,360096434308,360.098434308,360.096434308,-0.02,0.092,0.995,0.244,0.427,0.0,-0.07473103733677294,5.454,1.174,-165.456
360108627640,360106627640,360.10862764,360.10662764,-0.02,0.092,0.995,0.183,0.427,-0.732,-0.07447230964302495,5.455,1.177,-165.464
360119032136,360117032136,360.119032136,360.117032136,-0.02,0.092,0.995,0.183,0.427,-0.732,-0.07465915982858298,5.456,1.181,-165.471
360129243260,360127243260,360.12924326,360.12724326,-0.02,0.092,0.995,0.183,0.427,-0.732,-0.07515756263882505,5.457,1.185,-165.478
360139520591,360137520591,360.139520591,360.137520591,-0.02,0.092,0.995,0.183,0.427,-0.732,-0.07588354683297,5.457,1.189,-165.487
360149685341,360147685341,360.149685341,360.147685341,-0.02,0.092,0.995,0.122,0.488,-0.732,-0.07677326437432268,5.457,1.194,-165.494
360159906381,360157906381,360.159906381,360.157906381,-0.02,0.092,0.995,0.122,0.488,-0.732,-0.07777993275163936,5.457,1.198,-165.502
360170145796,360168145796,360.170145796,360.168145796,-0.02,0.092,0.995,0.122,0.488,-0.732,-0.0788772323754455,5.457,1.202,-165.509
360180279629,360178279629,360.180279629,360.178279629,-0.02,0.092,0.995,0.122,0.488,-0.732,-0.08002327219364512,5.457,1.206,-165.517
360190581460,360188581460,360.19058146,360.18858146,-0.02,0.092,0.995,0.061,0.488,-0.732,-0.08122970145970332,5.457,1.211,-165.525
360200767500,360198767500,360.2007675,360.1987675,-0.02,0.092,0.995,0.061,0.488,-0.732,-0.08246027090618074,5.456,1.215,-165.533
360210992916,360208992916,360.210992916,360.208992916,-0.021,0.093,0.996,0.061,0.488,-0.732,-0.08371582197556221,5.456,1.22,-165.54
360221201998,360219201998,360.221201998,360.219201998,-0.021,0.093,0.996,0.061,0.549,-0.732,-0.08498637234592658,5.455,1.225,-165.548
360231384830,360229384830,360.23138483,360.22938483,-0.021,0.093,0.996,0.0,0.549,-0.732,-0.08626622652716598,5.455,1.231,-165.555
360241639995,360239639995,360.241639995,360.239639995,-0.021,0.093,0.996,0.0,0.549,-0.732,-0.0875626241427895,5.454,1.236,-165.564
360251871535,360249871535,360.251871535,360.249871535,-0.021,0.093,0.996,0.0,0.549,-0.732,-0.08886128364178833,5.453,1.241,-165.571
360262090242,360260090242,360.262090242,360.260090242,-0.021,0.093,0.996,0.0,0.549,-0.732,-0.09016428010030515,5.452,1.246,-165.579
360272183825,360270183825,360.272183825,360.270183825,-0.021,0.093,0.996,0.0,0.549,-0.732,-0.09145699987443948,5.451,1.251,-165.586
360282523573,360280523573,360.282523573,360.280523573,-0.021,0.093,0.996,0.0,0.549,-0.732,-0.09278003862980135,5.45,1.257,-165.594
360292664989,360290664989,360.292664989,360.290664989,-0.021,0.093,0.996,0.0,0.549,-0.732,-0.09408366854203697,5.449,1.262,-165.602
360302893904,360300893904,360.302893904,360.300893904,-0.021,0.093,0.996,0.0,0.549,-0.732,-0.09539685709515765,5.447,1.266,-165.61
360313231318,360311231318,360.313231318,360.311231318,-0.021,0.093,0.996,0.0,0.488,-0.732,-0.09671756057293755,5.446,1.271,-165.617
360323387317,360321387317,360.323387317,360.321387317,-0.021,0.093,0.996,0.0,0.488,0.0,-0.09595479246829429,5.444,1.276,-165.625
360334300182,360332300182,360.334300182,360.332300182,-0.022,0.092,0.996,0.0,0.488,-0.732,-0.09577911150005584,5.442,1.281,-165.633
360350274568,360348274568,360.350274568,360.348274568,-0.022,0.092,0.996,-0.061,0.488,-0.732,-0.0960305356673773,5.44,1.286,-165.641
360354707263,360352707263,360.354707263,360.352707263,-0.022,0.092,0.996,-0.061,0.488,-0.732,-0.09656366145145939,5.438,1.291,-165.648
360366600116,360364600116,360.366600116,360.364600116,-0.022,0.092,0.996,-0.061,0.488,-0.732,-0.09749794669737719,5.436,1.298,-165.658
360377297442,360375297442,360.377297442,360.375297442,-0.022,0.092,0.996,-0.061,0.488,-0.732,-0.09846657492943474,5.434,1.302,-165.665
360391384601,360389384601,360.391384601,360.389384601,-0.022,0.092,0.996,-0.061,0.427,-0.732,-0.0995329821326282,5.431,1.307,-165.674
360398682177,360396682177,360.398682177,360.396682177,-0.022,0.092,0.996,-0.061,0.427,-0.732,-0.10075459093802021,5.429,1.312,-165.682
360409008800,360407008800,360.4090088,360.4070088,-0.022,0.092,0.996,-0.061,0.427,-0.732,-0.10193317751440635,5.426,1.317,-165.69
360419007301,360417007301,360.419007301,360.417007301,-0.022,0.092,0.996,-0.122,0.427,-0.732,-0.10312656826662311,5.424,1.321,-165.697
360429256924,360427256924,360.429256924,360.427256924,-0.022,0.092,0.996,-0.122,0.427,-0.732,-0.10437207499187663,5.422,1.325,-165.705
360439197676,360437197676,360.439197676,360.437197676,-0.022,0.092,0.996,-0.122,0.366,-0.732,-0.1055989703233514,5.419,1.329,-165.712
360449414633,360447414633,360.449414633,360.447414633,-0.022,0.092,0.996,-0.122,0.366,-0.732,-0.1068759544836098,5.417,1.332,-165.719
